{
  "resourceType": "Bundle",
  "entry": [
    {
      "resource": {
        "resourceType": "Composition",
        "id": "Composition/39",
        "section": [
          {
            "subject": {
              "reference": "Patient/1"
            },
            "content": {
              "reference": "Organization/2"
            }
          },
          {
            "subject": {
              "reference": "Patient/1"
            },
            "content": {
              "reference": "ClinicalImpression/3"
            }
          },
          {
            "subject": {
              "reference": "Patient/1"
            },
            "content": {
              "reference": "Condition/4"
            }
          },
          {
            "subject": {
              "reference": "Patient/1"
            },
            "content": {
              "reference": "Observation/5"
            }
          },
          {
            "subject": {
              "reference": "Patient/1"
            },
            "content": {
              "reference": "Practitioner/6"
            }
          },
          {
            "subject": {
              "reference": "Patient/1"
            },
            "content": {
              "reference": "Condition/7"
            }
          },
          {
            "subject": {
              "reference": "Patient/1"
            },
            "content": {
              "reference": "Observation/8"
            }
          },
          {
            "subject": {
              "reference": "Patient/1"
            },
            "content": {
              "reference": "Condition/9"
            }
          },
          {
            "subject": {
              "reference": "Patient/1"
            },
            "content": {
              "reference": "Observation/10"
            }
          },
          {
            "subject": {
              "reference": "Patient/1"
            },
            "content": {
              "reference": "MedicationPrescription/11"
            }
          },
          {
            "subject": {
              "reference": "Patient/1"
            },
            "content": {
              "reference": "MedicationAdministration/12"
            }
          },
          {
            "subject": {
              "reference": "Patient/1"
            },
            "content": {
              "reference": "Medication/13"
            }
          },
          {
            "subject": {
              "reference": "Patient/1"
            },
            "content": {
              "reference": "Condition/14"
            }
          },
          {
            "subject": {
              "reference": "Patient/1"
            },
            "content": {
              "reference": "Medication/15"
            }
          },
          {
            "subject": {
              "reference": "Patient/1"
            },
            "content": {
              "reference": "MedicationPrescription/16"
            }
          },
          {
            "subject": {
              "reference": "Patient/1"
            },
            "content": {
              "reference": "MedicationAdministration/17"
            }
          },
          {
            "subject": {
              "reference": "Patient/1"
            },
            "content": {
              "reference": "Medication/18"
            }
          },
          {
            "subject": {
              "reference": "Patient/1"
            },
            "content": {
              "reference": "Condition/19"
            }
          },
          {
            "subject": {
              "reference": "Patient/1"
            },
            "content": {
              "reference": "MedicationPrescription/20"
            }
          },
          {
            "subject": {
              "reference": "Patient/1"
            },
            "content": {
              "reference": "MedicationAdministration/21"
            }
          },
          {
            "subject": {
              "reference": "Patient/1"
            },
            "content": {
              "reference": "Medication/22"
            }
          },
          {
            "subject": {
              "reference": "Patient/1"
            },
            "content": {
              "reference": "Condition/23"
            }
          },
          {
            "subject": {
              "reference": "Patient/1"
            },
            "content": {
              "reference": "MedicationPrescription/24"
            }
          },
          {
            "subject": {
              "reference": "Patient/1"
            },
            "content": {
              "reference": "MedicationAdministration/25"
            }
          },
          {
            "subject": {
              "reference": "Patient/1"
            },
            "content": {
              "reference": "Medication/26"
            }
          },
          {
            "subject": {
              "reference": "Patient/1"
            },
            "content": {
              "reference": "Condition/27"
            }
          },
          {
            "subject": {
              "reference": "Patient/1"
            },
            "content": {
              "reference": "AllergyIntolerance/28"
            }
          },
          {
            "subject": {
              "reference": "Patient/1"
            },
            "content": {
              "reference": "AllergyIntolerance/29"
            }
          },
          {
            "subject": {
              "reference": "Patient/1"
            },
            "content": {
              "reference": "AllergyIntolerance/30"
            }
          },
          {
            "subject": {
              "reference": "Patient/1"
            },
            "content": {
              "reference": "Observation/31"
            }
          },
          {
            "subject": {
              "reference": "Patient/1"
            },
            "content": {
              "reference": "Immunization/32"
            }
          },
          {
            "subject": {
              "reference": "Patient/1"
            },
            "content": {
              "reference": "Practitioner/33"
            }
          },
          {
            "subject": {
              "reference": "Patient/1"
            },
            "content": {
              "reference": "Immunization/34"
            }
          },
          {
            "subject": {
              "reference": "Patient/1"
            },
            "content": {
              "reference": "Practitioner/35"
            }
          },
          {
            "subject": {
              "reference": "Patient/1"
            },
            "content": {
              "reference": "Immunization/36"
            }
          },
          {
            "subject": {
              "reference": "Patient/1"
            },
            "content": {
              "reference": "Practitioner/37"
            }
          },
          {
            "subject": {
              "reference": "Patient/1"
            },
            "content": {
              "reference": "Immunization/38"
            }
          },
          {
            "subject": {
              "reference": "Patient/1"
            },
            "content": {
              "reference": "Practitioner/39"
            }
          },
          {
            "subject": {
              "reference": "Patient/1"
            },
            "content": {
              "reference": "Observation/40"
            }
          },
          {
            "subject": {
              "reference": "Patient/1"
            },
            "content": {
              "reference": "Observation/41"
            }
          },
          {
            "subject": {
              "reference": "Patient/1"
            },
            "content": {
              "reference": "Observation/42"
            }
          },
          {
            "subject": {
              "reference": "Patient/1"
            },
            "content": {
              "reference": "Observation/43"
            }
          },
          {
            "subject": {
              "reference": "Patient/1"
            },
            "content": {
              "reference": "Observation/44"
            }
          },
          {
            "subject": {
              "reference": "Patient/1"
            },
            "content": {
              "reference": "Observation/45"
            }
          },
          {
            "subject": {
              "reference": "Patient/1"
            },
            "content": {
              "reference": "Observation/46"
            }
          },
          {
            "subject": {
              "reference": "Patient/1"
            },
            "content": {
              "reference": "Observation/47"
            }
          },
          {
            "subject": {
              "reference": "Patient/1"
            },
            "content": {
              "reference": "Observation/48"
            }
          },
          {
            "subject": {
              "reference": "Patient/1"
            },
            "content": {
              "reference": "Observation/49"
            }
          },
          {
            "subject": {
              "reference": "Patient/1"
            },
            "content": {
              "reference": "Observation/50"
            }
          },
          {
            "subject": {
              "reference": "Patient/1"
            },
            "content": {
              "reference": "Observation/51"
            }
          },
          {
            "subject": {
              "reference": "Patient/1"
            },
            "content": {
              "reference": "CarePlan/52"
            }
          },
          {
            "subject": {
              "reference": "Patient/1"
            },
            "content": {
              "reference": "ProcedureRequest/53"
            }
          },
          {
            "subject": {
              "reference": "Patient/1"
            },
            "content": {
              "reference": "ProcedureRequest/54"
            }
          },
          {
            "subject": {
              "reference": "Patient/1"
            },
            "content": {
              "reference": "ProcedureRequest/55"
            }
          },
          {
            "subject": {
              "reference": "Patient/1"
            },
            "content": {
              "reference": "ProcedureRequest/56"
            }
          },
          {
            "subject": {
              "reference": "Patient/1"
            },
            "content": {
              "reference": "ProcedureRequest/57"
            }
          },
          {
            "subject": {
              "reference": "Patient/1"
            },
            "content": {
              "reference": "ProcedureRequest/58"
            }
          },
          {
            "subject": {
              "reference": "Patient/1"
            },
            "content": {
              "reference": "ProcedureRequest/59"
            }
          },
          {
            "subject": {
              "reference": "Patient/1"
            },
            "content": {
              "reference": "ProcedureRequest/60"
            }
          },
          {
            "subject": {
              "reference": "Patient/1"
            },
            "content": {
              "reference": "ProcedureRequest/61"
            }
          },
          {
            "subject": {
              "reference": "Patient/1"
            },
            "content": {
              "reference": "Encounter/62"
            }
          },
          {
            "subject": {
              "reference": "Patient/1"
            },
            "content": {
              "reference": "Practitioner/63"
            }
          },
          {
            "subject": {
              "reference": "Patient/1"
            },
            "content": {
              "reference": "Location/64"
            }
          }
        ],
        "type": {
          "coding": [
            {
              "system": "http://loinc.org",
              "code": "34133-9",
              "display": "SUMMARIZATION OF EPISODE NOTE"
            },
            {
              "system": "LOINC",
              "code": "34133-9"
            }
          ]
        },
        "title": "Summary of Care"
      }
    },
    {
      "resource": {
        "resourceType": "Patient",
        "id": "Patient/1",
        "identifier": [
          {
            "system": "urn:oid:1.3.6.1.4.1.22812.3.99930.3",
            "value": "110107073916280"
          }
        ],
        "address": [
          {
            "use": "home",
            "line": [
              "1234 Six Forks"
            ],
            "city": "Portland",
            "state": "OR",
            "postalCode": "97005",
            "country": "US"
          }
        ],
        "telecom": [
          {
            "use": "home",
            "system": "phone",
            "value": "+1-(555)555-3333"
          }
        ],
        "name": [
          {
            "family": [
              "Jones"
            ],
            "given": [
              "Isabella"
            ]
          }
        ],
        "gender": "female",
        "birthDate": "1947-05-01",
        "extension": [
          {
            "url": "http://hl7.org/fhir/Profile/us-core#race",
            "valueCodeableConcept": {
              "coding": [
                {
                  "system": "urn:oid:2.16.840.1.113883.6.238",
                  "code": "2106-3",
                  "display": "White"
                }
              ]
            }
          },
          {
            "url": "http://hl7.org/fhir/Profile/us-core#ethnicity",
            "valueCodeableConcept": {
              "coding": [
                {
                  "system": "urn:oid:2.16.840.1.113883.6.238",
                  "code": "2186-5",
                  "display": "Not Hispanic or Latino"
                }
              ]
            }
          }
        ],
        "communication": [
          {
            "language": {
              "coding": [
                {
                  "code": "eng"
                }
              ]
            },
            "preferred": "true"
          }
        ],
        "managingOrganization": {
          "reference": "Organization/2"
        }
      }
    },
    {
      "resource": {
        "resourceType": "Organization",
        "id": "Organization/2",
        "name": "Get Well Clinic",
        "telecom": [
          {
            "system": "phone",
            "value": "+1-(555)555-1002"
          }
        ],
        "address": [
          {
            "line": [
              "1002 Healthcare Dr."
            ],
            "city": "Portland",
            "state": "OR",
            "postalCode": "97005",
            "country": "US"
          }
        ]
      }
    },
    {
      "resource": {
        "resourceType": "ClinicalImpression",
        "id": "ClinicalImpression/3",
        "patient": {
          "reference": "Patient/1"
        },
        "problem": [
          {
            "reference": "Condition/4"
          },
          {
            "reference": "Condition/7"
          },
          {
            "reference": "Condition/9"
          }
        ]
      }
    },
    {
      "resource": {
        "resourceType": "Condition",
        "id": "Condition/4",
        "patient": {
          "reference": "Patient/1"
        },
        "identifier": [
          {
            "value": "1.3.6.1.4.1.22812.3.99930.3.4.1"
          },
          {
            "value": "1.3.6.1.4.1.22812.3.99930.3.4.1"
          }
        ],
        "code": {
          "coding": [
            {
              "system": "urn:oid:2.16.840.1.113883.5.6",
              "code": "CONC"
            }
          ]
        },
        "clinicalStatus": "completed",
        "onsetPeriod": {},
        "stage": {
          "assessment": [
            {
              "reference": "Observation/5"
            }
          ]
        }
      }
    },
    {
      "resource": {
        "resourceType": "Observation",
        "id": "Observation/5",
        "subject": {
          "reference": "Patient/1"
        },
        "identifier": [
          {
            "value": "1.3.6.1.4.1.22812.3.99930.3.4.1.2.1"
          },
          {
            "value": "1.3.6.1.4.1.22812.3.99930.3.4.1.2.1"
          }
        ],
        "code": {
          "coding": [
            {
              "system": "http://snomed.info/sct",
              "code": "55607006",
              "display": "Problem"
            }
          ]
        },
        "status": "completed",
        "appliesPeriod": {
          "start": "2012-08-06"
        },
        "valueCodeableConcept": {
          "coding": [
            {
              "system": "http://snomed.info/sct",
              "code": "385093006",
              "display": "Community Acquired Pneumonia"
            }
          ]
        },
        "performer": [
          {
            "reference": "Practitioner/6"
          }
        ]
      }
    },
    {
      "resource": {
        "resourceType": "Practitioner",
        "id": "Practitioner/6",
        "identifier": [
          {
            "value": "2.16.840.1.113883.4.6"
          }
        ],
        "address": [
          {
            "line": [
              "1002 Healthcare Dr."
            ],
            "city": "Portland",
            "state": "OR",
            "postalCode": "97005",
            "country": "US"
          }
        ],
        "telecom": [
          {
            "system": "phone",
            "value": "+1-(555)555-1002"
          }
        ],
        "name": [
          {
            "family": [
              "Seven"
            ],
            "given": [
              "Henry"
            ]
          }
        ]
      }
    },
    {
      "resource": {
        "resourceType": "Condition",
        "id": "Condition/7",
        "patient": {
          "reference": "Patient/1"
        },
        "identifier": [
          {
            "value": "1.3.6.1.4.1.22812.3.99930.3.4.1"
          },
          {
            "value": "1.3.6.1.4.1.22812.3.99930.3.4.1"
          }
        ],
        "code": {
          "coding": [
            {
              "system": "urn:oid:2.16.840.1.113883.5.6",
              "code": "CONC"
            }
          ]
        },
        "clinicalStatus": "completed",
        "onsetPeriod": {},
        "stage": {
          "assessment": [
            {
              "reference": "Observation/8"
            }
          ]
        }
      }
    },
    {
      "resource": {
        "resourceType": "Observation",
        "id": "Observation/8",
        "subject": {
          "reference": "Patient/1"
        },
        "identifier": [
          {
            "value": "1.3.6.1.4.1.22812.3.99930.3.4.1.2.1"
          },
          {
            "value": "1.3.6.1.4.1.22812.3.99930.3.4.1.2.1"
          }
        ],
        "code": {
          "coding": [
            {
              "system": "http://snomed.info/sct",
              "code": "55607006",
              "display": "Problem"
            }
          ]
        },
        "status": "completed",
        "appliesPeriod": {
          "start": "2012-08-06T01:00:00"
        },
        "valueCodeableConcept": {
          "coding": [
            {
              "system": "http://snomed.info/sct",
              "code": "195967001",
              "display": "Asthma"
            }
          ]
        }
      }
    },
    {
      "resource": {
        "resourceType": "Condition",
        "id": "Condition/9",
        "patient": {
          "reference": "Patient/1"
        },
        "identifier": [
          {
            "value": "1.3.6.1.4.1.22812.3.99930.3.4.1"
          },
          {
            "value": "1.3.6.1.4.1.22812.3.99930.3.4.1"
          }
        ],
        "code": {
          "coding": [
            {
              "system": "urn:oid:2.16.840.1.113883.5.6",
              "code": "CONC"
            }
          ]
        },
        "clinicalStatus": "completed",
        "onsetPeriod": {},
        "stage": {
          "assessment": [
            {
              "reference": "Observation/10"
            }
          ]
        }
      }
    },
    {
      "resource": {
        "resourceType": "Observation",
        "id": "Observation/10",
        "subject": {
          "reference": "Patient/1"
        },
        "identifier": [
          {
            "value": "1.3.6.1.4.1.22812.3.99930.3.4.1.2.1"
          },
          {
            "value": "1.3.6.1.4.1.22812.3.99930.3.4.1.2.1"
          }
        ],
        "code": {
          "coding": [
            {
              "system": "http://snomed.info/sct",
              "code": "55607006",
              "display": "Problem"
            }
          ]
        },
        "status": "completed",
        "appliesPeriod": {
          "start": "2012-08-06T01:00:00"
        },
        "valueCodeableConcept": {
          "coding": [
            {
              "system": "http://snomed.info/sct",
              "code": "389087006",
              "display": "Hypoxia"
            }
          ]
        }
      }
    },
    {
      "resource": {
        "resourceType": "MedicationPrescription",
        "id": "MedicationPrescription/11",
        "patient": {
          "reference": "Patient/1"
        },
        "dosageInstruction": [
          {
            "scheduledTiming": {
              "repeat": {
                "period": "12",
                "periodUnits": "h"
              }
            }
          }
        ],
        "reasonReference": {
          "reference": "Condition/14"
        },
        "status": "completed",
        "medication": {
          "reference": "Medication/15"
        }
      }
    },
    {
      "resource": {
        "resourceType": "MedicationAdministration",
        "id": "MedicationAdministration/12",
        "patient": {
          "reference": "Patient/1"
        },
        "prescription": {
          "reference": "MedicationPrescription/11"
        },
        "dosage": [
          {
            "quantity": {
              "value": 1
            },
            "method": {
              "coding": [
                {
                  "system": "urn:oid:2.16.840.1.113883.3.26.1.1",
                  "code": "C42998",
                  "display": "TABLET"
                }
              ]
            }
          }
        ],
        "status": "completed",
        "effectiveTimePeriod": {
          "start": "2012-08-06"
        },
        "medication": {
          "reference": "Medication/13"
        }
      }
    },
    {
      "resource": {
        "resourceType": "Medication",
        "id": "Medication/13",
        "name": "Clarithromycin 500 MG Oral Tablet",
        "code": {
          "coding": [
            {
              "system": "http://www.nlm.nih.gov/research/umls/rxnorm",
              "code": "197517",
              "display": "Clarithromycin 500 MG Oral Tablet"
            }
          ]
        }
      }
    },
    {
      "resource": {
        "resourceType": "Condition",
        "id": "Condition/14",
        "patient": {
          "reference": "Patient/1"
        }
      }
    },
    {
      "resource": {
        "resourceType": "Medication",
        "id": "Medication/15",
        "name": "Clarithromycin 500 MG Oral Tablet",
        "code": {
          "coding": [
            {
              "system": "http://www.nlm.nih.gov/research/umls/rxnorm",
              "code": "197517",
              "display": "Clarithromycin 500 MG Oral Tablet"
            }
          ]
        }
      }
    },
    {
      "resource": {
        "resourceType": "MedicationPrescription",
        "id": "MedicationPrescription/16",
        "patient": {
          "reference": "Patient/1"
        },
        "dosageInstruction": [
          {
            "scheduledTiming": {
              "repeat": {
                "period": "24",
                "periodUnits": "h"
              }
            }
          }
        ],
        "reasonReference": {
          "reference": "Condition/19"
        }
      }
    },
    {
      "resource": {
        "resourceType": "MedicationAdministration",
        "id": "MedicationAdministration/17",
        "patient": {
          "reference": "Patient/1"
        },
        "prescription": {
          "reference": "MedicationPrescription/16"
        },
        "dosage": [
          {
            "route": {
              "coding": [
                {
                  "system": "urn:oid:2.16.840.1.113883.3.26.1.1",
                  "code": "C38288",
                  "display": "ORAL"
                }
              ]
            },
            "quantity": {
              "value": 1
            },
            "method": {
              "coding": [
                {
                  "system": "urn:oid:2.16.840.1.113883.3.26.1.1",
                  "code": "C42998",
                  "display": "TABLET"
                }
              ]
            }
          }
        ],
        "status": "completed",
        "effectiveTimePeriod": {
          "start": "20100130154300"
        },
        "medication": {
          "reference": "Medication/18"
        }
      }
    },
    {
      "resource": {
        "resourceType": "Medication",
        "id": "Medication/18",
        "name": "Metoprolol tartrate",
        "code": {
          "coding": [
            {
              "system": "http://www.nlm.nih.gov/research/umls/rxnorm",
              "code": "866924",
              "display": "Metoprolol tartrate"
            }
          ]
        }
      }
    },
    {
      "resource": {
        "resourceType": "Condition",
        "id": "Condition/19",
        "patient": {
          "reference": "Patient/1"
        }
      }
    },
    {
      "resource": {
        "resourceType": "MedicationPrescription",
        "id": "MedicationPrescription/20",
        "patient": {
          "reference": "Patient/1"
        },
        "dosageInstruction": [
          {
            "scheduledTiming": {
              "repeat": {
                "period": "6",
                "periodUnits": "h"
              }
            }
          }
        ],
        "reasonReference": {
          "reference": "Condition/23"
        }
      }
    },
    {
      "resource": {
        "resourceType": "MedicationAdministration",
        "id": "MedicationAdministration/21",
        "patient": {
          "reference": "Patient/1"
        },
        "prescription": {
          "reference": "MedicationPrescription/20"
        },
        "dosage": [
          {
            "route": {
              "coding": [
                {
                  "system": "urn:oid:2.16.840.1.113883.3.26.1.1",
                  "code": "C38216",
                  "display": "RESPIRATORY (INHALATION)"
                }
              ]
            },
            "quantity": {
              "value": 2,
              "units": "Puffs"
            },
            "method": {
              "coding": [
                {
                  "system": "urn:oid:2.16.840.1.113883.3.26.1.1",
                  "code": "C42960",
                  "display": "AEROSOL, METERED"
                }
              ]
            }
          }
        ],
        "status": "completed",
        "effectiveTimePeriod": {
          "start": "2012-08-06"
        },
        "medication": {
          "reference": "Medication/22"
        }
      }
    },
    {
      "resource": {
        "resourceType": "Medication",
        "id": "Medication/22",
        "name": "Albuterol 0.09 MG/ACTUAT metered dose",
        "code": {
          "coding": [
            {
              "system": "http://www.nlm.nih.gov/research/umls/rxnorm",
              "code": "573621",
              "display": "Albuterol 0.09 MG/ACTUAT metered dose"
            }
          ]
        }
      }
    },
    {
      "resource": {
        "resourceType": "Condition",
        "id": "Condition/23",
        "patient": {
          "reference": "Patient/1"
        }
      }
    },
    {
      "resource": {
        "resourceType": "MedicationPrescription",
        "id": "MedicationPrescription/24",
        "patient": {
          "reference": "Patient/1"
        },
        "dosageInstruction": [],
        "reasonReference": {
          "reference": "Condition/27"
        }
      }
    },
    {
      "resource": {
        "resourceType": "MedicationAdministration",
        "id": "MedicationAdministration/25",
        "patient": {
          "reference": "Patient/1"
        },
        "prescription": {
          "reference": "MedicationPrescription/24"
        },
        "dosage": [
          {
            "route": {
              "coding": [
                {
                  "system": "urn:oid:2.16.840.1.113883.3.26.1.1",
                  "code": "C38216",
                  "display": "RESPIRATORY (INHALATION)"
                }
              ]
            },
            "quantity": {
              "value": 2,
              "units": "Puffs"
            },
            "method": {
              "coding": [
                {
                  "system": "urn:oid:2.16.840.1.113883.3.26.1.1",
                  "code": "C42960",
                  "display": "AEROSOL, METERED"
                }
              ]
            }
          }
        ],
        "status": "completed",
        "effectiveTimePeriod": {
          "start": "2012-08-06"
        },
        "medication": {
          "reference": "Medication/26"
        }
      }
    },
    {
      "resource": {
        "resourceType": "Medication",
        "id": "Medication/26",
        "name": "Albuterol 0.09 MG/ACTUAT metered dose",
        "code": {
          "coding": [
            {
              "system": "http://www.nlm.nih.gov/research/umls/rxnorm",
              "code": "573621",
              "display": "Albuterol 0.09 MG/ACTUAT metered dose"
            }
          ]
        }
      }
    },
    {
      "resource": {
        "resourceType": "Condition",
        "id": "Condition/27",
        "patient": {
          "reference": "Patient/1"
        }
      }
    },
    {
      "resource": {
        "resourceType": "AllergyIntolerance",
        "id": "AllergyIntolerance/28",
        "patient": {
          "reference": "Patient/1"
        },
        "status": "Active",
        "event": [
          {
            "onset": "1998-01-10",
            "manifestation": [
              {
                "coding": [
                  {
                    "system": "http://snomed.info/sct",
                    "code": "416098002",
                    "display": "drug allergy"
                  }
                ]
              },
              {
                "coding": [
                  {
                    "system": "http://snomed.info/sct",
                    "code": "247472004",
                    "display": "Hives"
                  }
                ]
              }
            ]
          }
        ],
        "substance": [
          {
            "coding": [
              {
                "system": "http://www.nlm.nih.gov/research/umls/rxnorm",
                "code": "7982",
                "display": "Penicillin G benzathine"
              }
            ]
          }
        ],
        "name": "Penicillin G benzathine"
      }
    },
    {
      "resource": {
        "resourceType": "AllergyIntolerance",
        "id": "AllergyIntolerance/29",
        "patient": {
          "reference": "Patient/1"
        },
        "status": "Active",
        "event": [
          {
            "onset": "20010110000000",
            "manifestation": [
              {
                "coding": [
                  {
                    "system": "http://snomed.info/sct",
                    "code": "416098002",
                    "display": "drug allergy"
                  }
                ]
              },
              {
                "coding": [
                  {
                    "system": "http://snomed.info/sct",
                    "code": "267036007",
                    "display": "Shortness of Breath"
                  }
                ]
              }
            ]
          }
        ],
        "substance": [
          {
            "coding": [
              {
                "system": "http://snomed.info/sct",
                "code": "2670",
                "display": "Codeine"
              }
            ]
          }
        ],
        "name": "Codeine"
      }
    },
    {
      "resource": {
        "resourceType": "AllergyIntolerance",
        "id": "AllergyIntolerance/30",
        "patient": {
          "reference": "Patient/1"
        },
        "status": "Active",
        "event": [
          {
            "manifestation": [
              {
                "coding": [
                  {
                    "system": "http://snomed.info/sct",
                    "code": "416098002",
                    "display": "drug allergy"
                  }
                ]
              },
              {
                "coding": [
                  {
                    "system": "http://snomed.info/sct",
                    "code": "247472004",
                    "display": "Hives"
                  }
                ]
              }
            ],
            "severity": "Mild to moderate"
          }
        ],
        "substance": [
          {
            "coding": [
              {
                "system": "http://www.nlm.nih.gov/research/umls/rxnorm",
                "code": "1191",
                "display": "Aspirin"
              }
            ]
          }
        ],
        "name": "Aspirin"
      }
    },
    {
      "resource": {
        "resourceType": "Observation",
        "id": "Observation/31",
        "subject": {
          "reference": "Patient/1"
        }
      }
    },
    {
      "resource": {
        "resourceType": "Immunization",
        "id": "Immunization/32",
        "patient": {
          "reference": "Patient/1"
        },
        "route": {
          "coding": [
            {
              "system": "urn:oid:2.16.840.1.113883.3.26.1.1",
              "code": "C28161",
              "display": "INTRAMUSCULAR"
            }
          ]
        },
        "vaccineType": {
          "coding": [
            {
              "system": "http://www2a.cdc.gov/vaccines/iis/iisstandards/vaccines.asp?rpt=cvx",
              "code": "09",
              "display": "Td (adult), adsorbed"
            }
          ]
        },
        "performer": {
          "reference": "Practitioner/33"
        }
      }
    },
    {
      "resource": {
        "resourceType": "Practitioner",
        "id": "Practitioner/33",
        "identifier": [
          {
            "value": "1.3.6.1.4.1.22812.3.99930.3"
          }
        ],
        "address": [
          {
            "line": [
              "Get Well Clinic",
              "1004 Healthcare Dr."
            ],
            "city": "Portland",
            "state": "OR",
            "postalCode": "97005",
            "country": "US"
          }
        ],
        "telecom": [
          {
            "system": "phone",
            "value": "+1-(555)555-1014"
          }
        ],
        "name": [
          {
            "family": [
              "Nightingale"
            ],
            "given": [
              "Nancy"
            ]
          }
        ]
      }
    },
    {
      "resource": {
        "resourceType": "Immunization",
        "id": "Immunization/34",
        "patient": {
          "reference": "Patient/1"
        },
        "route": {
          "coding": [
            {
              "system": "urn:oid:2.16.840.1.113883.3.26.1.1",
              "code": "C28161",
              "display": "INTRAMUSCULAR"
            }
          ]
        },
        "vaccineType": {
          "coding": [
            {
              "system": "http://www2a.cdc.gov/vaccines/iis/iisstandards/vaccines.asp?rpt=cvx",
              "code": "88",
              "display": "Influenza virus vaccine"
            }
          ]
        },
        "performer": {
          "reference": "Practitioner/35"
        }
      }
    },
    {
      "resource": {
        "resourceType": "Practitioner",
        "id": "Practitioner/35",
        "identifier": [
          {
            "value": "1.3.6.1.4.1.22812.3.99930.3"
          }
        ],
        "address": [
          {
            "line": [
              "Get Well Clinic",
              "1004 Healthcare Dr."
            ],
            "city": "Portland",
            "state": "OR",
            "postalCode": "97005",
            "country": "US"
          }
        ],
        "telecom": [
          {
            "system": "phone",
            "value": "+1-(555)555-1014"
          }
        ],
        "name": [
          {
            "family": [
              "Nightingale"
            ],
            "given": [
              "Nancy"
            ]
          }
        ]
      }
    },
    {
      "resource": {
        "resourceType": "Immunization",
        "id": "Immunization/36",
        "patient": {
          "reference": "Patient/1"
        },
        "route": {
          "coding": [
            {
              "system": "urn:oid:2.16.840.1.113883.3.26.1.1",
              "code": "C28161",
              "display": "INTRAMUSCULAR"
            }
          ]
        },
        "vaccineType": {
          "coding": [
            {
              "system": "http://www2a.cdc.gov/vaccines/iis/iisstandards/vaccines.asp?rpt=cvx",
              "code": "88",
              "display": "Influenza virus vaccine"
            }
          ]
        },
        "performer": {
          "reference": "Practitioner/37"
        }
      }
    },
    {
      "resource": {
        "resourceType": "Practitioner",
        "id": "Practitioner/37",
        "identifier": [
          {
            "value": "1.3.6.1.4.1.22812.3.99930.3"
          }
        ],
        "address": [
          {
            "line": [
              "Get Well Clinic",
              "1004 Healthcare Dr."
            ],
            "city": "Portland",
            "state": "OR",
            "postalCode": "97005",
            "country": "US"
          }
        ],
        "telecom": [
          {
            "system": "phone",
            "value": "+1-(555)555-1014"
          }
        ],
        "name": [
          {
            "family": [
              "Nightingale"
            ],
            "given": [
              "Nancy"
            ]
          }
        ]
      }
    },
    {
      "resource": {
        "resourceType": "Immunization",
        "id": "Immunization/38",
        "patient": {
          "reference": "Patient/1"
        },
        "route": {
          "coding": [
            {
              "system": "urn:oid:2.16.840.1.113883.3.26.1.1",
              "code": "C28161",
              "display": "INTRAMUSCULAR"
            }
          ]
        },
        "vaccineType": {
          "coding": [
            {
              "system": "http://www2a.cdc.gov/vaccines/iis/iisstandards/vaccines.asp?rpt=cvx",
              "code": "33",
              "display": "Pneumococcal polysaccharide"
            }
          ]
        },
        "performer": {
          "reference": "Practitioner/39"
        }
      }
    },
    {
      "resource": {
        "resourceType": "Practitioner",
        "id": "Practitioner/39",
        "identifier": [
          {
            "value": "1.3.6.1.4.1.22812.3.99930.3"
          }
        ],
        "address": [
          {
            "line": [
              "Get Well Clinic",
              "1004 Healthcare Dr."
            ],
            "city": "Portland",
            "state": "OR",
            "postalCode": "97005",
            "country": "US"
          }
        ],
        "telecom": [
          {
            "system": "phone",
            "value": "+1-(555)555-1014"
          }
        ],
        "name": [
          {
            "family": [
              "Nightingale"
            ],
            "given": [
              "Nancy"
            ]
          }
        ]
      }
    },
    {
      "resource": {
        "resourceType": "Observation",
        "id": "Observation/40",
        "subject": {
          "reference": "Patient/1"
        },
        "identifier": [
          {
            "value": "1.3.6.1.4.1.22812.3.99930.3.4.12"
          }
        ],
        "code": {
          "coding": [
            {}
          ]
        },
        "status": "completed",
        "appliesPeriod": {
          "start": "1992",
          "end": "1993-09-25"
        }
      }
    },
    {
      "resource": {
        "resourceType": "Observation",
        "id": "Observation/41",
        "subject": {
          "reference": "Patient/1"
        },
        "code": {
          "coding": [
            {
              "system": "urn:oid:2.16.840.1.113883.5.4",
              "code": "ASSERTION",
              "display": "Assertion"
            }
          ]
        },
        "status": "completed",
        "appliesPeriod": {
          "start": "1900",
          "end": "19990925100051"
        },
        "valueCodeableConcept": {
          "coding": [
            {
              "system": "http://snomed.info/sct",
              "code": "449868002",
              "display": "Current every day smoker"
            }
          ]
        }
      }
    },
    {
      "resource": {
        "resourceType": "Observation",
        "id": "Observation/42",
        "subject": {
          "reference": "Patient/1"
        },
        "identifier": [
          {
            "value": "1.3.6.1.4.1.22812.3.99930.3.4.6"
          },
          {
            "value": "1.3.6.1.4.1.22812.3.99930.3.4.6"
          }
        ],
        "code": {
          "coding": [
            {
              "system": "http://loinc.org",
              "code": "8302-2",
              "display": "Height"
            }
          ]
        },
        "status": "completed",
        "appliesDateTime": "2012-08-06",
        "valueQuantity": {
          "value": "177",
          "units": "cm"
        }
      }
    },
    {
      "resource": {
        "resourceType": "Observation",
        "id": "Observation/43",
        "subject": {
          "reference": "Patient/1"
        },
        "identifier": [
          {
            "value": "1.3.6.1.4.1.22812.3.99930.3.4.6"
          },
          {
            "value": "1.3.6.1.4.1.22812.3.99930.3.4.6"
          }
        ],
        "code": {
          "coding": [
            {
              "system": "http://loinc.org",
              "code": "3141-9",
              "display": "Weight"
            }
          ]
        },
        "status": "completed",
        "appliesDateTime": "2012-08-06",
        "valueQuantity": {
          "value": "88",
          "units": "kg"
        }
      }
    },
    {
      "resource": {
        "resourceType": "Observation",
        "id": "Observation/44",
        "subject": {
          "reference": "Patient/1"
        },
        "identifier": [
          {
            "value": "1.3.6.1.4.1.22812.3.99930.3.4.6"
          },
          {
            "value": "1.3.6.1.4.1.22812.3.99930.3.4.6"
          }
        ],
        "code": {
          "coding": [
            {
              "system": "http://loinc.org",
              "code": "8480-6",
              "display": "BP Systolic"
            }
          ]
        },
        "status": "completed",
        "appliesDateTime": "2012-08-06",
        "valueQuantity": {
          "value": "135",
          "units": "mm[Hg]"
        }
      }
    },
    {
      "resource": {
        "resourceType": "Observation",
        "id": "Observation/45",
        "subject": {
          "reference": "Patient/1"
        },
        "identifier": [
          {
            "value": "1.3.6.1.4.1.22812.3.99930.3.4.6"
          },
          {
            "value": "1.3.6.1.4.1.22812.3.99930.3.4.6"
          }
        ],
        "code": {
          "coding": [
            {
              "system": "http://loinc.org",
              "code": "8462-4",
              "display": "BP Diastolic"
            }
          ]
        },
        "status": "completed",
        "appliesDateTime": "2012-08-06",
        "valueQuantity": {
          "value": "92",
          "units": "mm[Hg]"
        }
      }
    },
    {
      "resource": {
        "resourceType": "Observation",
        "id": "Observation/46",
        "subject": {
          "reference": "Patient/1"
        },
        "identifier": [
          {
            "value": "1.3.6.1.4.1.22812.3.99930.3.4.6"
          },
          {
            "value": "1.3.6.1.4.1.22812.3.99930.3.4.6"
          }
        ],
        "code": {
          "coding": [
            {
              "system": "http://loinc.org",
              "code": "39156-5",
              "display": "Body Mass Index Calculated"
            }
          ]
        },
        "status": "completed",
        "appliesDateTime": "2012-08-06",
        "valueQuantity": {
          "value": "28.1",
          "units": "1"
        }
      }
    },
    {
      "resource": {
        "resourceType": "Observation",
        "id": "Observation/47",
        "subject": {
          "reference": "Patient/1"
        }
      }
    },
    {
      "resource": {
        "resourceType": "Observation",
        "id": "Observation/48",
        "subject": {
          "reference": "Patient/1"
        },
        "identifier": [
          {
            "value": "1.3.6.1.4.1.22812.3.99930.3.4.5"
          },
          {
            "value": "1.3.6.1.4.1.22812.3.99930.3.4.5"
          }
        ],
        "code": {
          "coding": [
            {
              "system": "http://loinc.org",
              "code": "30313-1",
              "display": "HGB"
            }
          ]
        },
        "status": "completed",
        "appliesDateTime": "2012-08-06",
        "valueQuantity": {
          "value": "14.2",
          "units": "g/dl"
        },
        "interpretation": {
          "coding": [
            {}
          ]
        }
      }
    },
    {
      "resource": {
        "resourceType": "Observation",
        "id": "Observation/49",
        "subject": {
          "reference": "Patient/1"
        },
        "identifier": [
          {
            "value": "1.3.6.1.4.1.22812.3.99930.3.4.5"
          },
          {
            "value": "1.3.6.1.4.1.22812.3.99930.3.4.5"
          }
        ],
        "code": {
          "coding": [
            {
              "system": "http://loinc.org",
              "code": "20570-8",
              "display": "HCT"
            }
          ]
        },
        "status": "completed",
        "appliesDateTime": "2012-08-06",
        "valueQuantity": {
          "value": "45",
          "units": "%"
        },
        "interpretation": {
          "coding": [
            {}
          ]
        }
      }
    },
    {
      "resource": {
        "resourceType": "Observation",
        "id": "Observation/50",
        "subject": {
          "reference": "Patient/1"
        },
        "identifier": [
          {
            "value": "1.3.6.1.4.1.22812.3.99930.3.4.5"
          },
          {
            "value": "1.3.6.1.4.1.22812.3.99930.3.4.5"
          }
        ],
        "code": {
          "coding": [
            {
              "system": "http://loinc.org",
              "code": "33765-9",
              "display": "WBC"
            }
          ]
        },
        "status": "completed",
        "appliesDateTime": "2012-08-06",
        "valueQuantity": {
          "value": "7.6",
          "units": "10^3/ul"
        },
        "interpretation": {
          "coding": [
            {}
          ]
        }
      }
    },
    {
      "resource": {
        "resourceType": "Observation",
        "id": "Observation/51",
        "subject": {
          "reference": "Patient/1"
        },
        "identifier": [
          {
            "value": "1.3.6.1.4.1.22812.3.99930.3.4.5"
          },
          {
            "value": "1.3.6.1.4.1.22812.3.99930.3.4.5"
          }
        ],
        "code": {
          "coding": [
            {
              "system": "http://loinc.org",
              "code": "26515-7",
              "display": "PLT"
            }
          ]
        },
        "status": "completed",
        "appliesDateTime": "2012-08-06",
        "valueQuantity": {
          "value": "220",
          "units": "10^3/ul"
        },
        "interpretation": {
          "coding": [
            {}
          ]
        }
      }
    },
    {
      "resource": {
        "resourceType": "CarePlan",
        "id": "CarePlan/52",
        "patient": {
          "reference": "Patient/1"
        },
        "activity": [
          {
            "reference": {
              "reference": "ProcedureRequest/53"
            }
          },
          {
            "reference": {
              "reference": "ProcedureRequest/54"
            }
          },
          {
            "reference": {
              "reference": "ProcedureRequest/55"
            }
          },
          {
            "reference": {
              "reference": "ProcedureRequest/56"
            }
          },
          {
            "reference": {
              "reference": "ProcedureRequest/57"
            }
          },
          {
            "reference": {
              "reference": "ProcedureRequest/58"
            }
          },
          {
            "reference": {
              "reference": "ProcedureRequest/59"
            }
          },
          {
            "reference": {
              "reference": "ProcedureRequest/60"
            }
          },
          {
            "reference": {
              "reference": "ProcedureRequest/61"
            }
          }
        ]
      }
    },
    {
      "resource": {
        "resourceType": "ProcedureRequest",
        "id": "ProcedureRequest/53",
        "subject": {
          "reference": "Patient/1"
        },
        "code": {
          "coding": [
            {
              "system": "http://snomed.info/sct",
              "code": "168731009",
              "display": "Chest X-Ray"
            }
          ]
        },
        "status": "new",
        "timingDateTime": "2012-08-13"
      }
    },
    {
      "resource": {
        "resourceType": "ProcedureRequest",
        "id": "ProcedureRequest/54",
        "subject": {
          "reference": "Patient/1"
        }
      }
    },
    {
      "resource": {
        "resourceType": "ProcedureRequest",
        "id": "ProcedureRequest/55",
        "subject": {
          "reference": "Patient/1"
        }
      }
    },
    {
      "resource": {
        "resourceType": "ProcedureRequest",
        "id": "ProcedureRequest/56",
        "subject": {
          "reference": "Patient/1"
        }
      }
    },
    {
      "resource": {
        "resourceType": "ProcedureRequest",
        "id": "ProcedureRequest/57",
        "subject": {
          "reference": "Patient/1"
        }
      }
    },
    {
      "resource": {
        "resourceType": "ProcedureRequest",
        "id": "ProcedureRequest/58",
        "subject": {
          "reference": "Patient/1"
        }
      }
    },
    {
      "resource": {
        "resourceType": "ProcedureRequest",
        "id": "ProcedureRequest/59",
        "subject": {
          "reference": "Patient/1"
        },
        "type": {
          "coding": [
            {
              "system": "http://snomed.info/sct",
              "code": "225323000",
              "display": "Smoking Cessation"
            }
          ]
        },
        "status": "new",
        "timingDateTime": "2012-08-06"
      }
    },
    {
      "resource": {
        "resourceType": "ProcedureRequest",
        "id": "ProcedureRequest/60",
        "subject": {
          "reference": "Patient/1"
        },
        "type": {
          "coding": [
            {
              "system": "http://snomed.info/sct",
              "code": "406162001",
              "display": "Asthma Management"
            }
          ]
        },
        "status": "new",
        "timingDateTime": "2012-08-06"
      }
    },
    {
      "resource": {
        "resourceType": "ProcedureRequest",
        "id": "ProcedureRequest/61",
        "subject": {
          "reference": "Patient/1"
        },
        "type": {
          "coding": [
            {
              "system": "http://loinc.org",
              "code": "6460-0",
              "display": "Sputum Culture"
            }
          ]
        },
        "status": "new",
        "timingDateTime": "2012-08-06"
      }
    },
    {
      "resource": {
        "resourceType": "Encounter",
        "id": "Encounter/62",
        "patient": {
          "reference": "Patient/1"
        },
        "identifier": [
          {
            "value": "1.3.6.1.4.1.22812.3.99930.3.3.4"
          }
        ],
        "type": {
          "coding": [
            {
              "system": "http://www.ama-assn.org/go/cpt",
              "code": "99231",
              "display": "UNK"
            }
          ]
        },
        "participant": [
          {
            "type": {
              "coding": [
                {
                  "system": "http://hl7.org/fhir/v3/ParticipationType",
                  "code": "ATND",
                  "display": "attender"
                }
              ]
            },
            "individual": {
              "reference": "Practitioner/63"
            }
          }
        ],
        "location": [
          {
            "location": {
              "reference": "Location/64"
            }
          }
        ],
        "category": {
          "coding": [
            {
              "system": "http://snomed.info/sct",
              "code": "409586006"
            }
          ]
        },
        "clinicalStatus": "completed",
        "onsetPeriod": {},
        "code": {
          "coding": [
            {}
          ]
        }
      }
    },
    {
      "resource": {
        "resourceType": "Practitioner",
        "id": "Practitioner/63",
        "identifier": [
          {
            "value": "2.16.840.1.113883.4.6"
          }
        ],
        "address": [
          {
            "line": [
              "1002 Healthcare Dr."
            ],
            "city": "Portland",
            "state": "OR",
            "postalCode": "97005",
            "country": "US"
          }
        ],
        "telecom": [
          {
            "system": "phone",
            "value": "+1-(555)555-1002"
          }
        ],
        "name": [
          {
            "family": [
              "Seven"
            ],
            "given": [
              "Henry"
            ]
          }
        ]
      }
    },
    {
      "resource": {
        "resourceType": "Location",
        "id": "Location/64",
        "type": {
          "coding": [
            {
              "system": "urn:oid:2.16.840.1.113883.6.259",
              "code": "1117-1",
              "display": "Family Medicine Clinic"
            }
          ]
        },
        "address": {
          "line": [
            "1002 Healthcare Dr."
          ],
          "city": "Portland",
          "state": "OR",
          "postalCode": "97005",
          "country": "US"
        },
        "name": "Get Well Clinic"
      }
    }
  ],
  "id": "urn:hl7ii:1.3.6.1.4.1.22812.3.99930.3.1:66670992"
}