{
  "resourceType": "Bundle",
  "entry": [
    {
      "resource": {
        "resourceType": "Composition",
        "id": "Composition/574",
        "section": [
          {
            "subject": {
              "reference": "Patient/1"
            },
            "content": {
              "reference": "Organization/2"
            }
          },
          {
            "subject": {
              "reference": "Patient/1"
            },
            "content": {
              "reference": "ClinicalImpression/3"
            }
          },
          {
            "subject": {
              "reference": "Patient/1"
            },
            "content": {
              "reference": "Condition/4"
            }
          },
          {
            "subject": {
              "reference": "Patient/1"
            },
            "content": {
              "reference": "Observation/5"
            }
          },
          {
            "subject": {
              "reference": "Patient/1"
            },
            "content": {
              "reference": "Condition/6"
            }
          },
          {
            "subject": {
              "reference": "Patient/1"
            },
            "content": {
              "reference": "Observation/7"
            }
          },
          {
            "subject": {
              "reference": "Patient/1"
            },
            "content": {
              "reference": "Condition/8"
            }
          },
          {
            "subject": {
              "reference": "Patient/1"
            },
            "content": {
              "reference": "Observation/9"
            }
          },
          {
            "subject": {
              "reference": "Patient/1"
            },
            "content": {
              "reference": "MedicationPrescription/10"
            }
          },
          {
            "subject": {
              "reference": "Patient/1"
            },
            "content": {
              "reference": "MedicationAdministration/11"
            }
          },
          {
            "subject": {
              "reference": "Patient/1"
            },
            "content": {
              "reference": "Medication/12"
            }
          },
          {
            "subject": {
              "reference": "Patient/1"
            },
            "content": {
              "reference": "Condition/13"
            }
          },
          {
            "subject": {
              "reference": "Patient/1"
            },
            "content": {
              "reference": "Medication/14"
            }
          },
          {
            "subject": {
              "reference": "Patient/1"
            },
            "content": {
              "reference": "MedicationPrescription/15"
            }
          },
          {
            "subject": {
              "reference": "Patient/1"
            },
            "content": {
              "reference": "MedicationAdministration/16"
            }
          },
          {
            "subject": {
              "reference": "Patient/1"
            },
            "content": {
              "reference": "Medication/17"
            }
          },
          {
            "subject": {
              "reference": "Patient/1"
            },
            "content": {
              "reference": "Condition/18"
            }
          },
          {
            "subject": {
              "reference": "Patient/1"
            },
            "content": {
              "reference": "AllergyIntolerance/19"
            }
          },
          {
            "subject": {
              "reference": "Patient/1"
            },
            "content": {
              "reference": "AllergyIntolerance/20"
            }
          },
          {
            "subject": {
              "reference": "Patient/1"
            },
            "content": {
              "reference": "Procedure/21"
            }
          },
          {
            "subject": {
              "reference": "Patient/1"
            },
            "content": {
              "reference": "Procedure/22"
            }
          },
          {
            "subject": {
              "reference": "Patient/1"
            },
            "content": {
              "reference": "Immunization/23"
            }
          },
          {
            "subject": {
              "reference": "Patient/1"
            },
            "content": {
              "reference": "Organization/24"
            }
          },
          {
            "subject": {
              "reference": "Patient/1"
            },
            "content": {
              "reference": "Observation/25"
            }
          },
          {
            "subject": {
              "reference": "Patient/1"
            },
            "content": {
              "reference": "Observation/26"
            }
          },
          {
            "subject": {
              "reference": "Patient/1"
            },
            "content": {
              "reference": "Observation/27"
            }
          },
          {
            "subject": {
              "reference": "Patient/1"
            },
            "content": {
              "reference": "Observation/28"
            }
          },
          {
            "subject": {
              "reference": "Patient/1"
            },
            "content": {
              "reference": "Observation/29"
            }
          },
          {
            "subject": {
              "reference": "Patient/1"
            },
            "content": {
              "reference": "Observation/30"
            }
          },
          {
            "subject": {
              "reference": "Patient/1"
            },
            "content": {
              "reference": "Observation/31"
            }
          },
          {
            "subject": {
              "reference": "Patient/1"
            },
            "content": {
              "reference": "Observation/32"
            }
          },
          {
            "subject": {
              "reference": "Patient/1"
            },
            "content": {
              "reference": "Observation/33"
            }
          },
          {
            "subject": {
              "reference": "Patient/1"
            },
            "content": {
              "reference": "CarePlan/34"
            }
          },
          {
            "subject": {
              "reference": "Patient/1"
            },
            "content": {
              "reference": "ProcedureRequest/35"
            }
          },
          {
            "subject": {
              "reference": "Patient/1"
            },
            "content": {
              "reference": "ProcedureRequest/36"
            }
          },
          {
            "subject": {
              "reference": "Patient/1"
            },
            "content": {
              "reference": "ProcedureRequest/37"
            }
          },
          {
            "subject": {
              "reference": "Patient/1"
            },
            "content": {
              "reference": "Encounter/38"
            }
          }
        ],
        "type": {
          "coding": [
            {
              "system": "http://loinc.org",
              "code": "34133-9",
              "display": "SUMMARIZATION OF EPISODE NOTE"
            },
            {
              "system": "LOINC",
              "code": "34133-9"
            }
          ]
        },
        "title": "Summary of Care"
      }
    },
    {
      "resource": {
        "resourceType": "Patient",
        "id": "Patient/1",
        "identifier": [
          {
            "system": "urn:oid:1.3.6.1.4.1.22812.3.9999341.3",
            "value": "130115235147857"
          }
        ],
        "address": [
          {
            "use": "home",
            "line": [
              "99 Forest Park"
            ],
            "city": "Chicago",
            "state": "IL",
            "postalCode": "60301",
            "country": "US"
          }
        ],
        "name": [
          {
            "family": [
              "Everyman"
            ],
            "given": [
              "Adam"
            ]
          }
        ],
        "gender": "M",
        "birthDate": "1962-10-22",
        "extension": [
          {
            "url": "http://hl7.org/fhir/Profile/us-core#race",
            "valueCodeableConcept": {
              "coding": [
                {
                  "system": "urn:oid:2.16.840.1.113883.6.238",
                  "code": "2106-3",
                  "display": "White"
                }
              ]
            }
          },
          {
            "url": "http://hl7.org/fhir/Profile/us-core#ethnicity",
            "valueCodeableConcept": {
              "coding": [
                {
                  "system": "urn:oid:2.16.840.1.113883.6.238",
                  "code": "2186-5",
                  "display": "Not Hispanic or Latino"
                }
              ]
            }
          }
        ],
        "communication": [
          {
            "language": {
              "coding": [
                {
                  "code": "eng"
                }
              ]
            },
            "preferred": "true"
          }
        ],
        "managingOrganization": {
          "reference": "Organization/2"
        }
      }
    },
    {
      "resource": {
        "resourceType": "Organization",
        "id": "Organization/2",
        "name": "Primary Care Partners",
        "telecom": [
          {
            "use": "work",
            "system": "phone",
            "value": "+1-(555)555-1122"
          }
        ],
        "address": [
          {
            "use": "home",
            "line": [
              "Get Well Clinic, 1002 Healthcare Dr"
            ],
            "city": "Portland",
            "state": "OR",
            "postalCode": "97005",
            "country": "US"
          }
        ]
      }
    },
    {
      "resource": {
        "resourceType": "ClinicalImpression",
        "id": "ClinicalImpression/3",
        "patient": {
          "reference": "Patient/1"
        },
        "problem": [
          {
            "reference": "Condition/4"
          },
          {
            "reference": "Condition/6"
          },
          {
            "reference": "Condition/8"
          }
        ]
      }
    },
    {
      "resource": {
        "resourceType": "Condition",
        "id": "Condition/4",
        "patient": {
          "reference": "Patient/1"
        },
        "identifier": [
          {
            "value": "1.3.6.1.4.1.22812.3.9999341.3.4.1"
          },
          {
            "value": "1.3.6.1.4.1.22812.3.9999341.3.4.1"
          }
        ],
        "code": {
          "coding": [
            {
              "system": "urn:oid:2.16.840.1.113883.5.6",
              "code": "CONC"
            }
          ]
        },
        "clinicalStatus": "completed",
        "onsetPeriod": {},
        "stage": {
          "accessment": [
            {
              "reference": "Observation/5"
            }
          ]
        }
      }
    },
    {
      "resource": {
        "resourceType": "Observation",
        "id": "Observation/5",
        "subject": {
          "reference": "Patient/1"
        },
        "identifier": [
          {
            "value": "1.3.6.1.4.1.22812.3.9999341.3.4.1.2.1"
          },
          {
            "value": "1.3.6.1.4.1.22812.3.9999341.3.4.1.2.1"
          }
        ],
        "code": {
          "coding": [
            {
              "system": "http://snomed.info/sct",
              "code": "55607006",
              "display": "Problem"
            }
          ]
        },
        "status": "completed",
        "appliesPeriod": {
          "start": "2011-09-25T00:00:00"
        },
        "valueCodeableConcept": {
          "coding": [
            {
              "system": "http://snomed.info/sct",
              "code": "195967001",
              "display": "Asthma"
            }
          ]
        }
      }
    },
    {
      "resource": {
        "resourceType": "Condition",
        "id": "Condition/6",
        "patient": {
          "reference": "Patient/1"
        },
        "identifier": [
          {
            "value": "1.3.6.1.4.1.22812.3.9999341.3.4.1"
          },
          {
            "value": "1.3.6.1.4.1.22812.3.9999341.3.4.1"
          }
        ],
        "code": {
          "coding": [
            {
              "system": "urn:oid:2.16.840.1.113883.5.6",
              "code": "CONC"
            }
          ]
        },
        "clinicalStatus": "completed",
        "onsetPeriod": {},
        "stage": {
          "accessment": [
            {
              "reference": "Observation/7"
            }
          ]
        }
      }
    },
    {
      "resource": {
        "resourceType": "Observation",
        "id": "Observation/7",
        "subject": {
          "reference": "Patient/1"
        },
        "identifier": [
          {
            "value": "1.3.6.1.4.1.22812.3.9999341.3.4.1.2.1"
          },
          {
            "value": "1.3.6.1.4.1.22812.3.9999341.3.4.1.2.1"
          }
        ],
        "code": {
          "coding": [
            {
              "system": "http://snomed.info/sct",
              "code": "55607006",
              "display": "Problem"
            }
          ]
        },
        "status": "completed",
        "appliesPeriod": {
          "start": "2013-07-11T00:00:00"
        },
        "valueCodeableConcept": {
          "coding": [
            {
              "system": "http://snomed.info/sct",
              "code": "64109004",
              "display": "Costal chondritis"
            }
          ]
        }
      }
    },
    {
      "resource": {
        "resourceType": "Condition",
        "id": "Condition/8",
        "patient": {
          "reference": "Patient/1"
        },
        "identifier": [
          {
            "value": "1.3.6.1.4.1.22812.3.9999341.3.4.1"
          },
          {
            "value": "1.3.6.1.4.1.22812.3.9999341.3.4.1"
          }
        ],
        "code": {
          "coding": [
            {
              "system": "urn:oid:2.16.840.1.113883.5.6",
              "code": "CONC"
            }
          ]
        },
        "clinicalStatus": "completed",
        "onsetPeriod": {},
        "stage": {
          "accessment": [
            {
              "reference": "Observation/9"
            }
          ]
        }
      }
    },
    {
      "resource": {
        "resourceType": "Observation",
        "id": "Observation/9",
        "subject": {
          "reference": "Patient/1"
        },
        "identifier": [
          {
            "value": "1.3.6.1.4.1.22812.3.9999341.3.4.1.2.1"
          },
          {
            "value": "1.3.6.1.4.1.22812.3.9999341.3.4.1.2.1"
          }
        ],
        "code": {
          "coding": [
            {
              "system": "http://snomed.info/sct",
              "code": "55607006",
              "display": "Problem"
            }
          ]
        },
        "status": "completed",
        "appliesPeriod": {
          "start": "2013-07-11T00:00:00"
        },
        "valueCodeableConcept": {
          "coding": [
            {
              "system": "http://snomed.info/sct",
              "code": "66557003",
              "display": "No impairment"
            }
          ]
        }
      }
    },
    {
      "resource": {
        "resourceType": "MedicationPrescription",
        "id": "MedicationPrescription/10",
        "patient": {
          "reference": "Patient/1"
        },
        "dosageInstruction": [],
        "reasonReference": {
          "reference": "Condition/13"
        },
        "status": "completed",
        "dispense": {
          "quantity": {
            "value": "1"
          }
        },
        "medication": {
          "reference": "Medication/14"
        }
      }
    },
    {
      "resource": {
        "resourceType": "MedicationAdministration",
        "id": "MedicationAdministration/11",
        "patient": {
          "reference": "Patient/1"
        },
        "prescription": {
          "reference": "MedicationPrescription/10"
        },
        "dosage": [
          {
            "route": {
              "coding": [
                {
                  "system": "urn:oid:2.16.840.1.113883.3.26.1.1",
                  "code": "C38216",
                  "display": "RESPIRATORY (INHALATION)"
                }
              ]
            }
          }
        ],
        "status": "completed",
        "effectiveTimePeriod": {},
        "medication": {
          "reference": "Medication/12"
        }
      }
    },
    {
      "resource": {
        "resourceType": "Medication",
        "id": "Medication/12",
        "name": "Proventil HFA 108 (90 Base) MCG/ACT Inhalation Aerosol Solution",
        "code": {
          "coding": [
            {
              "system": "http://www.nlm.nih.gov/research/umls/rxnorm",
              "code": "746763",
              "display": "Proventil HFA 108 (90 Base) MCG/ACT Inhalation Aerosol Solution"
            }
          ]
        }
      }
    },
    {
      "resource": {
        "resourceType": "Condition",
        "id": "Condition/13",
        "patient": {
          "reference": "Patient/1"
        }
      }
    },
    {
      "resource": {
        "resourceType": "Medication",
        "id": "Medication/14",
        "name": "Proventil HFA 108 (90 Base) MCG/ACT Inhalation Aerosol Solution",
        "code": {
          "coding": [
            {
              "system": "http://www.nlm.nih.gov/research/umls/rxnorm",
              "code": "746763",
              "display": "Proventil HFA 108 (90 Base) MCG/ACT Inhalation Aerosol Solution"
            }
          ]
        }
      }
    },
    {
      "resource": {
        "resourceType": "MedicationPrescription",
        "id": "MedicationPrescription/15",
        "patient": {
          "reference": "Patient/1"
        },
        "dosageInstruction": [],
        "reasonReference": {
          "reference": "Condition/18"
        }
      }
    },
    {
      "resource": {
        "resourceType": "MedicationAdministration",
        "id": "MedicationAdministration/16",
        "patient": {
          "reference": "Patient/1"
        },
        "prescription": {
          "reference": "MedicationPrescription/15"
        },
        "dosage": [],
        "status": "completed",
        "effectiveTimePeriod": {},
        "medication": {
          "reference": "Medication/17"
        }
      }
    },
    {
      "resource": {
        "resourceType": "Medication",
        "id": "Medication/17",
        "code": {
          "coding": [
            {}
          ]
        }
      }
    },
    {
      "resource": {
        "resourceType": "Condition",
        "id": "Condition/18",
        "patient": {
          "reference": "Patient/1"
        }
      }
    },
    {
      "resource": {
        "resourceType": "AllergyIntolerance",
        "id": "AllergyIntolerance/19",
        "patient": {
          "reference": "Patient/1"
        },
        "status": "Active",
        "event": [
          {
            "manifestation": [
              {
                "coding": [
                  {
                    "system": "http://snomed.info/sct",
                    "code": "419199007",
                    "display": "allergy to substance"
                  }
                ]
              }
            ]
          }
        ],
        "substance": [
          {
            "coding": [
              {
                "system": "http://www.nlm.nih.gov/research/umls/rxnorm",
                "code": "2670",
                "display": "Codeine"
              }
            ]
          },
          {
            "coding": [
              {
                "system": "urn:oid:2.16.840.1.113883.6.65",
                "code": "32",
                "display": "Codeine"
              }
            ]
          }
        ],
        "name": "Codeine"
      }
    },
    {
      "resource": {
        "resourceType": "AllergyIntolerance",
        "id": "AllergyIntolerance/20",
        "patient": {
          "reference": "Patient/1"
        },
        "status": "Active",
        "event": [
          {
            "manifestation": [
              {
                "coding": [
                  {
                    "system": "http://snomed.info/sct",
                    "code": "419199007",
                    "display": "allergy to substance"
                  }
                ]
              }
            ]
          }
        ],
        "substance": [
          {
            "coding": [
              {
                "system": "http://www.nlm.nih.gov/research/umls/rxnorm",
                "code": "863538",
                "display": "Penicillin G Potassium SOLR"
              }
            ]
          },
          {
            "coding": [
              {
                "system": "urn:oid:2.16.840.1.113883.6.69",
                "code": "63323032320",
                "display": "Penicillin G Potassium SOLR"
              }
            ]
          }
        ],
        "name": "Penicillin G Potassium SOLR"
      }
    },
    {
      "resource": {
        "resourceType": "Procedure",
        "id": "Procedure/21",
        "patient": {
          "reference": "Patient/1"
        },
        "identifier": [
          {
            "value": "1.3.6.1.4.1.22812.3.9999341.3.4.7"
          }
        ],
        "type": {
          "coding": [
            {}
          ]
        },
        "status": "active"
      }
    },
    {
      "resource": {
        "resourceType": "Procedure",
        "id": "Procedure/22",
        "patient": {
          "reference": "Patient/1"
        },
        "identifier": [
          {
            "value": "1.3.6.1.4.1.22812.3.9999341.3.4.7"
          }
        ],
        "type": {
          "coding": [
            {}
          ]
        },
        "status": "active"
      }
    },
    {
      "resource": {
        "resourceType": "Immunization",
        "id": "Immunization/23",
        "patient": {
          "reference": "Patient/1"
        },
        "status": "completed",
        "vaccineType": {
          "coding": [
            {
              "system": "http://www2a.cdc.gov/vaccines/iis/iisstandards/vaccines.asp?rpt=cvx",
              "code": "126",
              "display": "Influenza A (H1N1) Monoval PF Intramuscular Suspension"
            }
          ]
        },
        "lotNumber": "8362",
        "manufacturer": {
          "reference": "Organization/24"
        }
      }
    },
    {
      "resource": {
        "resourceType": "Organization",
        "id": "Organization/24",
        "name": "MERCK SHARP & DOHME"
      }
    },
    {
      "resource": {
        "resourceType": "Observation",
        "id": "Observation/25",
        "subject": {
          "reference": "Patient/1"
        },
        "identifier": [
          {
            "value": "1.3.6.1.4.1.22812.3.9999341.3.4.12"
          },
          {
            "value": "1.3.6.1.4.1.22812.3.9999341.3.4.12"
          }
        ],
        "code": {
          "coding": [
            {
              "system": "http://snomed.info/sct",
              "code": "229819007"
            }
          ]
        },
        "status": "completed",
        "appliesPeriod": {}
      }
    },
    {
      "resource": {
        "resourceType": "Observation",
        "id": "Observation/26",
        "subject": {
          "reference": "Patient/1"
        },
        "code": {
          "coding": [
            {
              "system": "urn:oid:2.16.840.1.113883.5.4",
              "code": "ASSERTION",
              "display": "Assertion"
            }
          ]
        },
        "status": "completed",
        "appliesPeriod": {},
        "valueCodeableConcept": {
          "coding": [
            {
              "system": "http://snomed.info/sct",
              "code": "266919005",
              "display": "Never smoker"
            }
          ]
        }
      }
    },
    {
      "resource": {
        "resourceType": "Observation",
        "id": "Observation/27",
        "subject": {
          "reference": "Patient/1"
        },
        "identifier": [
          {
            "value": "1.3.6.1.4.1.22812.3.9999341.3.4.6"
          },
          {
            "value": "1.3.6.1.4.1.22812.3.9999341.3.4.6"
          }
        ],
        "code": {
          "coding": [
            {
              "system": "http://loinc.org",
              "code": "8480-6",
              "display": "BP Systolic"
            }
          ]
        },
        "status": "completed",
        "appliesDateTime": "20130711002500",
        "valueQuantity": {
          "value": "150",
          "units": "mm[Hg]"
        }
      }
    },
    {
      "resource": {
        "resourceType": "Observation",
        "id": "Observation/28",
        "subject": {
          "reference": "Patient/1"
        },
        "identifier": [
          {
            "value": "1.3.6.1.4.1.22812.3.9999341.3.4.6"
          },
          {
            "value": "1.3.6.1.4.1.22812.3.9999341.3.4.6"
          }
        ],
        "code": {
          "coding": [
            {
              "system": "http://loinc.org",
              "code": "8462-4",
              "display": "BP Diastolic"
            }
          ]
        },
        "status": "completed",
        "appliesDateTime": "20130711002500",
        "valueQuantity": {
          "value": "95",
          "units": "mm[Hg]"
        }
      }
    },
    {
      "resource": {
        "resourceType": "Observation",
        "id": "Observation/29",
        "subject": {
          "reference": "Patient/1"
        },
        "identifier": [
          {
            "value": "1.3.6.1.4.1.22812.3.9999341.3.4.6"
          },
          {
            "value": "1.3.6.1.4.1.22812.3.9999341.3.4.6"
          }
        ],
        "code": {
          "coding": [
            {
              "system": "http://loinc.org",
              "code": "8302-2",
              "display": "Height"
            }
          ]
        },
        "status": "completed",
        "appliesDateTime": "20130711002500",
        "valueQuantity": {
          "value": "70",
          "units": "[in_us]"
        }
      }
    },
    {
      "resource": {
        "resourceType": "Observation",
        "id": "Observation/30",
        "subject": {
          "reference": "Patient/1"
        },
        "identifier": [
          {
            "value": "1.3.6.1.4.1.22812.3.9999341.3.4.6"
          },
          {
            "value": "1.3.6.1.4.1.22812.3.9999341.3.4.6"
          }
        ],
        "code": {
          "coding": [
            {
              "system": "http://loinc.org",
              "code": "3141-9",
              "display": "Weight"
            }
          ]
        },
        "status": "completed",
        "appliesDateTime": "20130711002500",
        "valueQuantity": {
          "value": "195",
          "units": "[lb_av]"
        }
      }
    },
    {
      "resource": {
        "resourceType": "Observation",
        "id": "Observation/31",
        "subject": {
          "reference": "Patient/1"
        },
        "identifier": [
          {
            "value": "1.3.6.1.4.1.22812.3.9999341.3.4.6"
          },
          {
            "value": "1.3.6.1.4.1.22812.3.9999341.3.4.6"
          }
        ],
        "code": {
          "coding": [
            {
              "system": "http://loinc.org",
              "code": "39156-5",
              "display": "Body Mass Index Calculated"
            }
          ]
        },
        "status": "completed",
        "appliesDateTime": "20130711002500",
        "valueQuantity": {
          "value": "27.98",
          "units": "kg/m2"
        }
      }
    },
    {
      "resource": {
        "resourceType": "Observation",
        "id": "Observation/32",
        "subject": {
          "reference": "Patient/1"
        },
        "identifier": [
          {
            "value": "1.3.6.1.4.1.22812.3.9999341.3.4.6"
          },
          {
            "value": "1.3.6.1.4.1.22812.3.9999341.3.4.6"
          }
        ],
        "code": {
          "coding": [
            {
              "system": "http://loinc.org",
              "code": "3140-1",
              "display": "Body Surface Area Calculated"
            }
          ]
        },
        "status": "completed",
        "appliesDateTime": "20130711002500",
        "valueQuantity": {
          "value": "2.06",
          "units": "1"
        }
      }
    },
    {
      "resource": {
        "resourceType": "Observation",
        "id": "Observation/33",
        "subject": {
          "reference": "Patient/1"
        },
        "identifier": [
          {
            "value": "1.3.6.1.4.1.22812.3.9999341.3.4.5"
          },
          {
            "value": "1.3.6.1.4.1.22812.3.9999341.3.4.5"
          }
        ],
        "code": {
          "coding": [
            {
              "system": "http://loinc.org",
              "code": "2028-9",
              "display": "Carbon Dioxide"
            }
          ]
        },
        "status": "active",
        "appliesDateTime": "20130711002700",
        "valueQuantity": {
          "value": "25.2",
          "units": "mmol/L"
        },
        "interpretation": {
          "coding": [
            {}
          ]
        }
      }
    },
    {
      "resource": {
        "resourceType": "CarePlan",
        "id": "CarePlan/34",
        "patient": {
          "reference": "Patient/1"
        },
        "activity": [
          {
            "refrence": "ProcedureRequest/35"
          },
          {
            "refrence": "ProcedureRequest/36"
          },
          {
            "refrence": "ProcedureRequest/37"
          }
        ]
      }
    },
    {
      "resource": {
        "resourceType": "ProcedureRequest",
        "id": "ProcedureRequest/35",
        "subject": {
          "reference": "Patient/1"
        }
      }
    },
    {
      "resource": {
        "resourceType": "ProcedureRequest",
        "id": "ProcedureRequest/36",
        "subject": {
          "reference": "Patient/1"
        },
        "type": {
          "coding": [
            {
              "system": "urn:oid:2.16.840.1.113883.6.5",
              "code": "289169006",
              "display": "Weight Loss; Start: 11Jul2013"
            }
          ]
        },
        "clinicalStatus": "new"
      }
    },
    {
      "resource": {
        "resourceType": "ProcedureRequest",
        "id": "ProcedureRequest/37",
        "subject": {
          "reference": "Patient/1"
        },
        "type": {
          "coding": [
            {
              "system": "urn:oid:2.16.840.1.113883.6.5",
              "code": "406162001",
              "display": "Asthma Management; Start: 11Jul2013"
            }
          ]
        },
        "clinicalStatus": "new"
      }
    },
    {
      "resource": {
        "resourceType": "Encounter",
        "id": "Encounter/38",
        "patient": {
          "reference": "Patient/1"
        },
        "identifier": [
          {
            "value": "1.3.6.1.4.1.22812.3.9999341.3.3.4"
          }
        ],
        "type": {
          "coding": [
            {
              "system": "urn:oid:2.16.840.1.113883.5.4"
            }
          ]
        }
      }
    }
  ],
  "id": "urn:hl7ii:47c724fb-7ae1-402d-8d86-2cafd14e9c52"
}