{
  "resourceType": "Bundle",
  "entry": [
    {
      "resource": {
        "resourceType": "Composition",
        "id": "Composition/0",
        "section": [
          {
            "entry": [
              {
                "reference": "Organization/2"
              }
            ]
          },
          {
            "entry": [
              {
                "reference": "AllergyIntolerance/3"
              }
            ]
          },
          {
            "entry": [
              {
                "reference": "AllergyIntolerance/4"
              }
            ]
          },
          {
            "entry": [
              {
                "reference": "AllergyIntolerance/5"
              }
            ]
          },
          {
            "entry": [
              {
                "reference": "Encounter/6"
              }
            ]
          },
          {
            "entry": [
              {
                "reference": "Practitioner/7"
              }
            ]
          },
          {
            "entry": [
              {
                "reference": "Location/8"
              }
            ]
          },
          {
            "entry": [
              {
                "reference": "Observation/9"
              }
            ]
          },
          {
            "entry": [
              {
                "reference": "Observation/10"
              }
            ]
          },
          {
            "entry": [
              {
                "reference": "Immunization/11"
              }
            ]
          },
          {
            "entry": [
              {
                "reference": "Organization/12"
              }
            ]
          },
          {
            "entry": [
              {
                "reference": "Practitioner/13"
              }
            ]
          },
          {
            "entry": [
              {
                "reference": "Organization/14"
              }
            ]
          },
          {
            "entry": [
              {
                "reference": "Immunization/15"
              }
            ]
          },
          {
            "entry": [
              {
                "reference": "Organization/16"
              }
            ]
          },
          {
            "entry": [
              {
                "reference": "Practitioner/17"
              }
            ]
          },
          {
            "entry": [
              {
                "reference": "Organization/18"
              }
            ]
          },
          {
            "entry": [
              {
                "reference": "Immunization/19"
              }
            ]
          },
          {
            "entry": [
              {
                "reference": "Organization/20"
              }
            ]
          },
          {
            "entry": [
              {
                "reference": "Practitioner/21"
              }
            ]
          },
          {
            "entry": [
              {
                "reference": "Organization/22"
              }
            ]
          },
          {
            "entry": [
              {
                "reference": "Immunization/23"
              }
            ]
          },
          {
            "entry": [
              {
                "reference": "Organization/24"
              }
            ]
          },
          {
            "entry": [
              {
                "reference": "Practitioner/25"
              }
            ]
          },
          {
            "entry": [
              {
                "reference": "Organization/26"
              }
            ]
          },
          {
            "entry": [
              {
                "reference": "MedicationOrder/27"
              }
            ]
          },
          {
            "entry": [
              {
                "reference": "MedicationAdministration/28"
              }
            ]
          },
          {
            "entry": [
              {
                "reference": "Medication/29"
              }
            ]
          },
          {
            "entry": [
              {
                "reference": "Organization/30"
              }
            ]
          },
          {
            "entry": [
              {
                "reference": "Practitioner/31"
              }
            ]
          },
          {
            "entry": [
              {
                "reference": "Organization/32"
              }
            ]
          },
          {
            "entry": [
              {
                "reference": "Condition/33"
              }
            ]
          },
          {
            "entry": [
              {
                "reference": "Medication/34"
              }
            ]
          },
          {
            "entry": [
              {
                "reference": "Organization/35"
              }
            ]
          },
          {
            "entry": [
              {
                "reference": "Practitioner/36"
              }
            ]
          },
          {
            "entry": [
              {
                "reference": "Claim/37"
              }
            ]
          },
          {
            "entry": [
              {
                "reference": "Coverage/38"
              }
            ]
          },
          {
            "entry": [
              {
                "reference": "Organization/39"
              }
            ]
          },
          {
            "entry": [
              {
                "reference": "Procedure/40"
              }
            ]
          },
          {
            "entry": [
              {
                "reference": "Procedure/41"
              }
            ]
          },
          {
            "entry": [
              {
                "reference": "Procedure/42"
              }
            ]
          },
          {
            "entry": [
              {
                "reference": "Procedure/43"
              }
            ]
          },
          {
            "entry": [
              {
                "reference": "Condition/44"
              }
            ]
          },
          {
            "entry": [
              {
                "reference": "Condition/45"
              }
            ]
          },
          {
            "entry": [
              {
                "reference": "Procedure/46"
              }
            ]
          },
          {
            "entry": [
              {
                "reference": "Practitioner/47"
              }
            ]
          },
          {
            "entry": [
              {
                "reference": "Organization/48"
              }
            ]
          },
          {
            "entry": [
              {
                "reference": "Device/49"
              }
            ]
          },
          {
            "entry": [
              {
                "reference": "Procedure/50"
              }
            ]
          },
          {
            "entry": [
              {
                "reference": "Practitioner/51"
              }
            ]
          },
          {
            "entry": [
              {
                "reference": "Organization/52"
              }
            ]
          },
          {
            "entry": [
              {
                "reference": "Device/53"
              }
            ]
          },
          {
            "entry": [
              {
                "reference": "Location/54"
              }
            ]
          },
          {
            "entry": [
              {
                "reference": "Observation/55"
              }
            ]
          },
          {
            "entry": [
              {
                "reference": "Observation/56"
              }
            ]
          },
          {
            "entry": [
              {
                "reference": "Observation/57"
              }
            ]
          },
          {
            "entry": [
              {
                "reference": "Observation/58"
              }
            ]
          },
          {
            "entry": [
              {
                "reference": "Observation/59"
              }
            ]
          },
          {
            "entry": [
              {
                "reference": "Observation/60"
              }
            ]
          },
          {
            "entry": [
              {
                "reference": "Observation/61"
              }
            ]
          },
          {
            "entry": [
              {
                "reference": "Observation/62"
              }
            ]
          },
          {
            "entry": [
              {
                "reference": "Observation/63"
              }
            ]
          },
          {
            "entry": [
              {
                "reference": "Observation/64"
              }
            ]
          },
          {
            "entry": [
              {
                "reference": "Observation/65"
              }
            ]
          },
          {
            "entry": [
              {
                "reference": "Observation/66"
              }
            ]
          },
          {
            "entry": [
              {
                "reference": "Observation/67"
              }
            ]
          },
          {
            "entry": [
              {
                "reference": "Observation/68"
              }
            ]
          },
          {
            "entry": [
              {
                "reference": "Observation/69"
              }
            ]
          }
        ],
        "type": {
          "coding": [
            {
              "system": "http://loinc.org",
              "code": "34133-9",
              "display": "Summarization of Episode Note"
            },
            {
              "system": "LOINC",
              "code": "34133-9"
            }
          ]
        },
        "title": "Community Health and Hospitals: Health Summary",
        "subject": {
          "reference": "Patient/1"
        }
      }
    },
    {
      "resource": {
        "resourceType": "Patient",
        "id": "Patient/1",
        "identifier": [
          {
            "system": "urn:oid:2.16.840.1.113883.19.5.99999.2",
            "value": "998991"
          },
          {
            "system": "urn:oid:2.16.840.1.113883.4.1",
            "value": "111-00-2330"
          }
        ],
        "address": [
          {
            "use": "home",
            "line": [
              "1357 Amber Drive"
            ],
            "city": "Beaverton",
            "state": "OR",
            "postalCode": "97867",
            "country": "US"
          }
        ],
        "telecom": [
          {
            "use": "home",
            "system": "phone",
            "value": "(816)276-6909"
          }
        ],
        "name": [
          {
            "use": "usual",
            "given": [
              "Isabella",
              "Isa"
            ],
            "family": [
              "Jones"
            ]
          }
        ],
        "gender": "female",
        "birthDate": "1975-05-01",
        "maritalStatus": {
          "coding": [
            {
              "system": "urn:oid:2.16.840.1.113883.5.2",
              "code": "M",
              "display": "Married"
            }
          ]
        },
        "extension": [
          {
            "url": "http://hl7.org/fhir/StructureDefinition/us-core-religion",
            "valueCodeableConcept": {
              "coding": [
                {
                  "system": "urn:oid:2.16.840.1.113883.5.1076",
                  "code": "1013",
                  "display": "Christian (non-Catholic, non-specific)"
                }
              ]
            }
          },
          {
            "url": "http://hl7.org/fhir/StructureDefinition/us-core-race",
            "valueCodeableConcept": {
              "coding": [
                {
                  "system": "urn:oid:2.16.840.1.113883.6.238",
                  "code": "2106-3",
                  "display": "White"
                }
              ]
            }
          },
          {
            "url": "http://hl7.org/fhir/StructureDefinition/us-core-ethnicity",
            "valueCodeableConcept": {
              "coding": [
                {
                  "system": "urn:oid:2.16.840.1.113883.6.238",
                  "code": "2186-5",
                  "display": "Not Hispanic or Latino"
                }
              ]
            }
          },
          {
            "url": "http://hl7.org/fhir/StructureDefinition/birthPlace",
            "valueAddress": {
              "city": "Beaverton",
              "state": "OR",
              "postalCode": "97867",
              "country": "US"
            }
          }
        ],
        "contact": [
          {
            "relationship": [
              {
                "coding": [
                  {
                    "system": "urn:oid:2.16.840.1.113883.5.111",
                    "code": "PRN",
                    "display": "Parent"
                  }
                ]
              }
            ],
            "address": {
              "line": [
                "1357 Amber Drive"
              ],
              "city": "Beaverton",
              "state": "OR",
              "postalCode": "97867",
              "country": "US"
            },
            "telecom": [
              {
                "use": "home",
                "system": "phone",
                "value": "(816)276-6909"
              }
            ],
            "name": [
              {
                "given": [
                  "Ralph"
                ],
                "family": [
                  "Jones"
                ]
              }
            ]
          },
          {
            "relationship": [
              {
                "coding": [
                  {
                    "system": "urn:oid:2.16.840.1.113883.5.111",
                    "code": "GUAR"
                  }
                ]
              }
            ],
            "address": [
              {
                "use": "home",
                "line": [
                  "17 Daws Rd."
                ],
                "city": "Blue Bell",
                "state": "MA",
                "postalCode": "02368",
                "country": "US"
              }
            ],
            "telecom": [
              {
                "use": "home",
                "system": "phone",
                "value": "(781)555-1212"
              }
            ],
            "name": {
              "given": [
                "Adam",
                "Frankie"
              ],
              "family": [
                "Everyman"
              ]
            }
          }
        ],
        "communication": [
          {
            "language": {
              "coding": [
                {
                  "code": "en"
                }
              ]
            },
            "preferred": "true"
          }
        ],
        "managingOrganization": {
          "reference": "Organization/2"
        }
      }
    },
    {
      "resource": {
        "resourceType": "Organization",
        "id": "Organization/2",
        "name": "Community Health and Hospitals",
        "telecom": [
          {
            "use": "work",
            "system": "phone",
            "value": " 555-555-5000"
          }
        ],
        "address": [
          {
            "line": [
              "1001 Village Avenue"
            ],
            "city": "Portland",
            "state": "OR",
            "postalCode": "99123",
            "country": "US"
          }
        ]
      }
    },
    {
      "resource": {
        "resourceType": "AllergyIntolerance",
        "id": "AllergyIntolerance/3",
        "patient": {
          "reference": "Patient/1"
        },
        "status": "Inactive",
        "lastOccurence": "2007-05-01",
        "reaction": [
          {
            "onset": "2007-05-01",
            "manifestation": [
              {
                "coding": [
                  {
                    "system": "http://snomed.info/sct",
                    "code": "422587007",
                    "display": "Nausea"
                  }
                ]
              }
            ],
            "severity": "severe"
          }
        ],
        "category": "medication",
        "substance": {
          "coding": [
            {
              "system": "http://www.nlm.nih.gov/research/umls/rxnorm",
              "code": "314422",
              "display": "ALLERGENIC EXTRACT, PENICILLIN"
            }
          ]
        },
        "criticality": "CRITH"
      }
    },
    {
      "resource": {
        "resourceType": "AllergyIntolerance",
        "id": "AllergyIntolerance/4",
        "patient": {
          "reference": "Patient/1"
        },
        "status": "Active",
        "lastOccurence": "2006-05-01",
        "reaction": [
          {
            "onset": "2006-05-01",
            "manifestation": [
              {
                "coding": [
                  {
                    "system": "http://snomed.info/sct",
                    "code": "56018004",
                    "display": "Wheezing"
                  }
                ]
              }
            ],
            "severity": "moderate"
          }
        ],
        "category": "medication",
        "substance": {
          "coding": [
            {
              "system": "http://www.nlm.nih.gov/research/umls/rxnorm",
              "code": "2670",
              "display": "Codeine"
            }
          ]
        },
        "criticality": "CRITL"
      }
    },
    {
      "resource": {
        "resourceType": "AllergyIntolerance",
        "id": "AllergyIntolerance/5",
        "patient": {
          "reference": "Patient/1"
        },
        "status": "Active",
        "lastOccurence": "2008-05-01",
        "reaction": [
          {
            "onset": "2008-05-01",
            "manifestation": [
              {
                "coding": [
                  {
                    "system": "http://snomed.info/sct",
                    "code": "247472004",
                    "display": "Hives"
                  }
                ]
              }
            ],
            "severity": "moderate"
          }
        ],
        "type": "intolerance",
        "category": "medication",
        "substance": {
          "coding": [
            {
              "system": "http://www.nlm.nih.gov/research/umls/rxnorm",
              "code": "1191",
              "display": "Aspirin"
            }
          ]
        },
        "criticality": "CRITL"
      }
    },
    {
      "resource": {
        "resourceType": "Encounter",
        "id": "Encounter/6",
        "patient": {
          "reference": "Patient/1"
        },
        "identifier": [
          {
            "value": "2a620155-9d11-439e-92b3-5d9815ff4de8"
          }
        ],
        "type": [
          {
            "coding": [
              {
                "system": "http://www.ama-assn.org/go/cpt",
                "code": "99213",
                "display": "Office outpatient visit 15 minutes"
              },
              {
                "system": "urn:oid:2.16.840.1.113883.5.4",
                "code": "AMB",
                "display": "Ambulatory"
              }
            ]
          }
        ],
        "period": {
          "start": "2009-02-27T13:00:00",
          "end": "2009-02-27T13:00:00"
        },
        "participant": [
          {
            "type": {
              "coding": [
                {
                  "system": "http://hl7.org/fhir/v3/ParticipationType",
                  "code": "ATND",
                  "display": "attender"
                }
              ]
            },
            "individual": {
              "reference": "Practitioner/7"
            }
          }
        ],
        "location": [
          {
            "location": {
              "reference": "Location/8"
            }
          }
        ],
        "reason": [
          {
            "coding": [
              {
                "system": "http://snomed.info/sct",
                "code": "233604007",
                "display": "Pneumonia"
              }
            ]
          }
        ]
      }
    },
    {
      "resource": {
        "resourceType": "Practitioner",
        "id": "Practitioner/7",
        "identifier": [
          {
            "value": "PseduoMD-3"
          }
        ],
        "practitionerRole": [
          {
            "specialty": [
              {
                "coding": [
                  {
                    "system": "http://snomed.info/sct",
                    "code": "59058001",
                    "display": "General Physician"
                  }
                ]
              }
            ]
          }
        ]
      }
    },
    {
      "resource": {
        "resourceType": "Location",
        "id": "Location/8",
        "type": {
          "coding": [
            {
              "system": "urn:oid:2.16.840.1.113883.6.259",
              "code": "1160-1",
              "display": "Urgent Care Center"
            }
          ]
        },
        "address": {
          "line": [
            "17 Daws Rd."
          ],
          "city": "Blue Bell",
          "state": "MA",
          "postalCode": "02368",
          "country": "US"
        },
        "name": "Community Urgent Care Center"
      }
    },
    {
      "resource": {
        "resourceType": "Observation",
        "id": "Observation/9",
        "subject": {
          "reference": "Patient/1"
        },
        "identifier": [
          {
            "value": "c6b5a04b-2bf4-49d1-8336-636a3813df0a"
          }
        ],
        "code": {
          "coding": [
            {
              "system": "http://loinc.org",
              "code": "57251-1",
              "display": "Ambulation"
            }
          ]
        },
        "status": "completed",
        "effectiveDateTime": "2009-03-11T12:30:00",
        "valueCodeableConcept": {
          "coding": [
            {
              "system": "http://snomed.info/sct",
              "code": "371153006",
              "display": "Independently able"
            }
          ]
        },
        "interpretation": {
          "coding": [
            {
              "system": "urn:oid:2.16.840.1.113883.5.83",
              "code": "B"
            }
          ]
        }
      }
    },
    {
      "resource": {
        "resourceType": "Observation",
        "id": "Observation/10",
        "subject": {
          "reference": "Patient/1"
        },
        "category": {
          "coding": [
            {
              "code": "social-history",
              "display": "Social history"
            }
          ]
        },
        "identifier": [
          {
            "value": "c6b5a04b-2bf4-49d1-8336-636a3813df0a"
          }
        ],
        "code": {
          "coding": [
            {
              "system": "http://snomed.info/sct",
              "code": "373930000",
              "display": "Cognitive function finding"
            }
          ]
        },
        "status": "completed",
        "effectiveDateTime": "2009-03-11T12:30:00",
        "valueCodeableConcept": {
          "coding": [
            {
              "system": "http://snomed.info/sct",
              "code": "61372001",
              "display": "Aggressive behavior"
            }
          ]
        },
        "interpretation": {
          "coding": [
            {
              "system": "urn:oid:2.16.840.1.113883.5.83",
              "code": "HH"
            }
          ]
        },
        "referenceRange": [
          {
            "text": "Non Aggressive to Aggressive"
          }
        ]
      }
    },
    {
      "resource": {
        "resourceType": "Immunization",
        "id": "Immunization/11",
        "patient": {
          "reference": "Patient/1"
        },
        "date": "1999-11",
        "route": {
          "coding": [
            {
              "system": "urn:oid:2.16.840.1.113883.3.26.1.1",
              "code": "C28161",
              "display": "Intramuscular injection"
            }
          ]
        },
        "doseQuantity": {
          "value": 50,
          "unit": "mcg"
        },
        "vaccineCode": {
          "coding": [
            {
              "system": "http://www2a.cdc.gov/vaccines/iis/iisstandards/vaccines.asp?rpt=cvx",
              "code": "88",
              "display": "Influenza virus vaccine"
            }
          ]
        },
        "lotNumber": "1",
        "manufacturer": {
          "reference": "Organization/12"
        },
        "performer": {
          "reference": "Practitioner/13"
        }
      }
    },
    {
      "resource": {
        "resourceType": "Organization",
        "id": "Organization/12",
        "name": "Health LS - Immuno Inc."
      }
    },
    {
      "resource": {
        "resourceType": "Practitioner",
        "id": "Practitioner/13",
        "identifier": [
          {
            "value": "2.16.840.1.113883.19.5.9999.456"
          }
        ],
        "address": [
          {
            "line": [
              "1021 Health Drive"
            ],
            "city": "Ann Arbor",
            "state": "MI",
            "postalCode": "99099",
            "country": "US"
          }
        ],
        "name": {
          "given": [
            "Amanda"
          ],
          "family": [
            "Assigned"
          ]
        },
        "practitionerRole": [
          {
            "managingOrganization": {
              "reference": "Organization/14"
            }
          }
        ]
      }
    },
    {
      "resource": {
        "resourceType": "Organization",
        "id": "Organization/14",
        "name": "Good Health Clinic"
      }
    },
    {
      "resource": {
        "resourceType": "Immunization",
        "id": "Immunization/15",
        "patient": {
          "reference": "Patient/1"
        },
        "wasNotGiven": true,
        "date": "1998-12-15",
        "route": {
          "coding": [
            {
              "system": "urn:oid:2.16.840.1.113883.3.26.1.1",
              "code": "C28161",
              "display": "Intramuscular injection"
            }
          ]
        },
        "doseQuantity": {
          "value": 50,
          "unit": "mcg"
        },
        "vaccineCode": {
          "coding": [
            {
              "system": "http://www2a.cdc.gov/vaccines/iis/iisstandards/vaccines.asp?rpt=cvx",
              "code": "88",
              "display": "Influenza virus vaccine"
            }
          ]
        },
        "lotNumber": "1",
        "manufacturer": {
          "reference": "Organization/16"
        },
        "performer": {
          "reference": "Practitioner/17"
        }
      }
    },
    {
      "resource": {
        "resourceType": "Organization",
        "id": "Organization/16",
        "name": "Health LS - Immuno Inc."
      }
    },
    {
      "resource": {
        "resourceType": "Practitioner",
        "id": "Practitioner/17",
        "identifier": [
          {
            "value": "2.16.840.1.113883.19.5.9999.456"
          }
        ],
        "address": [
          {
            "line": [
              "1021 Health Drive"
            ],
            "city": "Ann Arbor",
            "state": "MI",
            "postalCode": "99099",
            "country": "US"
          }
        ],
        "name": {
          "given": [
            "Amanda"
          ],
          "family": [
            "Assigned"
          ]
        },
        "practitionerRole": [
          {
            "managingOrganization": {
              "reference": "Organization/18"
            }
          }
        ]
      }
    },
    {
      "resource": {
        "resourceType": "Organization",
        "id": "Organization/18",
        "name": "Good Health Clinic"
      }
    },
    {
      "resource": {
        "resourceType": "Immunization",
        "id": "Immunization/19",
        "patient": {
          "reference": "Patient/1"
        },
        "date": "1998-12-15",
        "route": {
          "coding": [
            {
              "system": "urn:oid:2.16.840.1.113883.3.26.1.1",
              "code": "C28161",
              "display": "Intramuscular injection"
            }
          ]
        },
        "doseQuantity": {
          "value": 50,
          "unit": "mcg"
        },
        "vaccineCode": {
          "coding": [
            {
              "system": "http://www2a.cdc.gov/vaccines/iis/iisstandards/vaccines.asp?rpt=cvx",
              "code": "33",
              "display": "Pneumococcal polysaccharide vaccine"
            }
          ]
        },
        "lotNumber": "1",
        "manufacturer": {
          "reference": "Organization/20"
        },
        "performer": {
          "reference": "Practitioner/21"
        }
      }
    },
    {
      "resource": {
        "resourceType": "Organization",
        "id": "Organization/20",
        "name": "Health LS - Immuno Inc."
      }
    },
    {
      "resource": {
        "resourceType": "Practitioner",
        "id": "Practitioner/21",
        "identifier": [
          {
            "value": "2.16.840.1.113883.19.5.9999.456"
          }
        ],
        "address": [
          {
            "line": [
              "1021 Health Drive"
            ],
            "city": "Ann Arbor",
            "state": "MI",
            "postalCode": "99099",
            "country": "US"
          }
        ],
        "name": {
          "given": [
            "Amanda"
          ],
          "family": [
            "Assigned"
          ]
        },
        "practitionerRole": [
          {
            "managingOrganization": {
              "reference": "Organization/22"
            }
          }
        ]
      }
    },
    {
      "resource": {
        "resourceType": "Organization",
        "id": "Organization/22",
        "name": "Good Health Clinic"
      }
    },
    {
      "resource": {
        "resourceType": "Immunization",
        "id": "Immunization/23",
        "patient": {
          "reference": "Patient/1"
        },
        "wasNotGiven": true,
        "date": "1998-12-15",
        "route": {
          "coding": [
            {
              "system": "urn:oid:2.16.840.1.113883.3.26.1.1",
              "code": "C28161",
              "display": "Intramuscular injection"
            }
          ]
        },
        "doseQuantity": {
          "value": 50,
          "unit": "mcg"
        },
        "vaccineCode": {
          "coding": [
            {
              "system": "http://www2a.cdc.gov/vaccines/iis/iisstandards/vaccines.asp?rpt=cvx",
              "code": "103",
              "display": "Tetanus and diphtheria toxoids - preservative free"
            }
          ]
        },
        "lotNumber": "1",
        "manufacturer": {
          "reference": "Organization/24"
        },
        "performer": {
          "reference": "Practitioner/25"
        },
        "explanation": {
          "reasonNotGiven": [
            {
              "coding": [
                {
                  "system": "urn:oid:2.16.840.1.113883.5.8",
                  "code": "PATOBJ",
                  "display": "Patient Objection"
                }
              ]
            }
          ]
        }
      }
    },
    {
      "resource": {
        "resourceType": "Organization",
        "id": "Organization/24",
        "name": "Health LS - Immuno Inc."
      }
    },
    {
      "resource": {
        "resourceType": "Practitioner",
        "id": "Practitioner/25",
        "identifier": [
          {
            "value": "2.16.840.1.113883.19.5.9999.456"
          }
        ],
        "address": [
          {
            "line": [
              "1021 Health Drive"
            ],
            "city": "Ann Arbor",
            "state": "MI",
            "postalCode": "99099",
            "country": "US"
          }
        ],
        "name": {
          "given": [
            "Amanda"
          ],
          "family": [
            "Assigned"
          ]
        },
        "practitionerRole": [
          {
            "managingOrganization": {
              "reference": "Organization/26"
            }
          }
        ]
      }
    },
    {
      "resource": {
        "resourceType": "Organization",
        "id": "Organization/26",
        "name": "Good Health Clinic"
      }
    },
    {
      "resource": {
        "resourceType": "MedicationOrder",
        "id": "MedicationOrder/27",
        "patient": {
          "reference": "Patient/1"
        },
        "dosageInstruction": [
          {
            "timing": {
              "repeat": {
                "period": "6",
                "periodUnits": "h"
              }
            }
          }
        ],
        "medicationReference": {
          "reference": "Medication/34"
        },
        "reasonReference": {
          "reference": "Condition/33"
        },
        "status": "completed",
        "dispenseRequest": {
          "validityPeriod": {
            "start": "2007-01-03"
          },
          "numberOfRepeatsAllowed": 1,
          "quantity": {
            "value": 75
          }
        },
        "prescriber": {
          "reference": "Practitioner/36"
        }
      }
    },
    {
      "resource": {
        "resourceType": "MedicationAdministration",
        "id": "MedicationAdministration/28",
        "patient": {
          "reference": "Patient/1"
        },
        "prescription": {
          "reference": "MedicationOrder/27"
        },
        "dosage": {
          "route": {
            "coding": [
              {
                "system": "urn:oid:2.16.840.1.113883.3.26.1.1",
                "code": "C38216",
                "display": "RESPIRATORY (INHALATION)"
              }
            ]
          },
          "quantity": {
            "value": 1,
            "unit": "mg/actuat"
          },
          "rateRatio": {
            "numerator": {
              "value": 90,
              "unit": "ml/min"
            },
            "denominator": {
              "value": 1
            }
          },
          "method": {
            "coding": [
              {
                "system": "urn:oid:2.16.840.1.113883.3.26.1.1",
                "code": "C42944",
                "display": "INHALANT"
              }
            ]
          }
        },
        "status": "completed",
        "effectiveTimePeriod": {
          "start": "2007-01-03",
          "end": "2012-05-15"
        },
        "medicationReference": {
          "reference": "Medication/29"
        },
        "practitioner": {
          "reference": "Practitioner/31"
        }
      }
    },
    {
      "resource": {
        "resourceType": "Medication",
        "id": "Medication/29",
        "code": {
          "coding": [
            {
              "system": "http://www.nlm.nih.gov/research/umls/rxnorm",
              "code": "219483",
              "display": "Proventil HFA"
            }
          ],
          "text": "Proventil HFA"
        },
        "manufacturer": {
          "reference": "Organization/30"
        }
      }
    },
    {
      "resource": {
        "resourceType": "Organization",
        "id": "Organization/30",
        "name": "Medication Factory Inc."
      }
    },
    {
      "resource": {
        "resourceType": "Practitioner",
        "id": "Practitioner/31",
        "practitionerRole": [
          {
            "managingOrganization": {
              "reference": "Organization/32"
            }
          }
        ]
      }
    },
    {
      "resource": {
        "resourceType": "Organization",
        "id": "Organization/32",
        "name": "Community Health and Hospitals"
      }
    },
    {
      "resource": {
        "resourceType": "Condition",
        "id": "Condition/33",
        "patient": {
          "reference": "Patient/1"
        },
        "category": {
          "coding": [
            {
              "system": "http://snomed.info/sct",
              "code": "404684003",
              "display": "Finding"
            }
          ]
        },
        "onsetPeriod": {
          "start": "2007-01-03"
        },
        "code": {
          "coding": [
            {
              "system": "http://snomed.info/sct",
              "code": "233604007",
              "display": "Pneumonia"
            }
          ]
        }
      }
    },
    {
      "resource": {
        "resourceType": "Medication",
        "id": "Medication/34",
        "code": {
          "coding": [
            {
              "system": "http://www.nlm.nih.gov/research/umls/rxnorm",
              "code": "573621",
              "display": "Proventil 0.09 MG/ACTUAT inhalant solution"
            }
          ],
          "text": "Proventil 0.09 MG/ACTUAT inhalant solution"
        },
        "manufacturer": {
          "reference": "Organization/35"
        }
      }
    },
    {
      "resource": {
        "resourceType": "Organization",
        "id": "Organization/35",
        "name": "Medication Factory Inc."
      }
    },
    {
      "resource": {
        "resourceType": "Practitioner",
        "id": "Practitioner/36",
        "identifier": [
          {
            "value": "2a620155-9d11-439e-92b3-5d9815fe4de8"
          }
        ],
        "name": {
          "given": [
            "Henry"
          ],
          "family": [
            "Seven"
          ]
        }
      }
    },
    {
      "resource": {
        "resourceType": "Claim",
        "id": "Claim/37",
        "patient": {
          "reference": "Patient/1"
        },
        "coverage": [
          {
            "sequence": 1,
            "coverage": {
              "reference": "Coverage/38"
            }
          }
        ],
        "identifier": [
          {
            "value": "14d4a520-7aae-11db-9fe1-0800200c9a66"
          },
          {
            "value": "2.16.840.1.113883.19"
          }
        ],
        "item": [
          {
            "sequence": 1,
            "service": {
              "system": "http://snomed.info/sct",
              "code": "73761001",
              "display": "Colonoscopy"
            }
          }
        ]
      }
    },
    {
      "resource": {
        "resourceType": "Coverage",
        "id": "Coverage/38",
        "subscriber": {
          "reference": "Patient/1"
        },
        "identifier": [
          {
            "value": "2.16.840.1.113883.19"
          }
        ],
        "issuer": {
          "reference": "Organization/39"
        }
      }
    },
    {
      "resource": {
        "resourceType": "Organization",
        "id": "Organization/39",
        "name": "Good Health Insurance",
        "telecom": [
          {
            "use": "work",
            "system": "phone",
            "value": "(781)555-1515"
          }
        ],
        "address": [
          {
            "use": "work",
            "line": [
              "123 Insurance\n\t\t\t\t\t\t\t\t\t\t\t\tRoad"
            ],
            "city": "Blue Bell",
            "state": "MA",
            "postalCode": "02368",
            "country": "US"
          }
        ]
      }
    },
    {
      "resource": {
        "resourceType": "Procedure",
        "id": "Procedure/40",
        "subject": {
          "reference": "Patient/1"
        },
        "code": {
          "coding": [
            {
              "system": "http://snomed.info/sct",
              "code": "73761001",
              "display": "Colonoscopy"
            }
          ]
        },
        "status": "new",
        "effectiveTime": "2012-05-12"
      }
    },
    {
      "resource": {
        "resourceType": "Procedure",
        "id": "Procedure/41",
        "subject": {
          "reference": "Patient/1"
        },
        "code": {
          "coding": [
            {
              "system": "http://snomed.info/sct",
              "code": "73761001",
              "display": "Colonoscopy"
            }
          ]
        },
        "status": "new",
        "effectiveTime": "2012-05-12"
      }
    },
    {
      "resource": {
        "resourceType": "Procedure",
        "id": "Procedure/42",
        "subject": {
          "reference": "Patient/1"
        },
        "code": {
          "coding": [
            {
              "system": "http://snomed.info/sct",
              "code": "73761001",
              "display": "Colonoscopy"
            }
          ]
        },
        "status": "new",
        "effectiveTime": "2012-05-12"
      }
    },
    {
      "resource": {
        "resourceType": "Procedure",
        "id": "Procedure/43",
        "subject": {
          "reference": "Patient/1"
        },
        "code": {
          "coding": [
            {
              "system": "http://snomed.info/sct",
              "code": "73761001",
              "display": "Colonoscopy"
            }
          ]
        },
        "status": "new",
        "effectiveTime": "2012-05-12"
      }
    },
    {
      "resource": {
        "resourceType": "Condition",
        "id": "Condition/44",
        "patient": {
          "reference": "Patient/1"
        },
        "identifier": [
          {
            "value": "ec8a6ff8-ed4b-4f7e-82c3-e98e58b45de7"
          }
        ],
        "code": {
          "coding": {
            "system": "http://snomed.info/sct",
            "code": "233604007",
            "display": "Pneumonia"
          }
        },
        "clinicalStatus": "Resolved",
        "category": {
          "coding": {
            "system": "http://snomed.info/sct",
            "code": "409586006",
            "display": "Complaint"
          }
        },
        "onsetQuantity": {
          "value": 57,
          "unit": "a",
          "system": "http://snomed.info/sct",
          "code": "445518008"
        },
        "onsetDateTime": "2008-01-03"
      }
    },
    {
      "resource": {
        "resourceType": "Condition",
        "id": "Condition/45",
        "patient": {
          "reference": "Patient/1"
        },
        "identifier": [
          {
            "value": "ec8a6ff8-ed4b-4f7e-82c3-e98e58b45de7"
          }
        ],
        "code": {
          "coding": {
            "system": "http://snomed.info/sct",
            "code": "195967001",
            "display": "Asthma"
          }
        },
        "clinicalStatus": "Active",
        "onsetPeriod": {
          "start": "2007-01-03",
          "end": "2008-01-03"
        },
        "category": {
          "coding": {
            "system": "http://snomed.info/sct",
            "code": "409586006",
            "display": "Complaint"
          }
        },
        "onsetQuantity": {
          "value": 57,
          "unit": "a",
          "system": "http://snomed.info/sct",
          "code": "445518008"
        }
      }
    },
    {
      "resource": {
        "resourceType": "Procedure",
        "id": "Procedure/46",
        "subject": {
          "reference": "Patient/1"
        },
        "identifier": [
          {
            "value": "d68b7e32-7810-4f5b-9cc2-acd54b0fd85d"
          }
        ],
        "code": {
          "coding": [
            {
              "system": "http://snomed.info/sct",
              "code": "73761001",
              "display": "Colonoscopy"
            }
          ]
        },
        "status": "completed",
        "performedDateTime": "2012-05-12",
        "bodySite": [
          {
            "coding": [
              {
                "system": "urn:oid:2.16.840.1.113883.3.88.12.3221.8.9",
                "code": "appropriate_code",
                "display": "colon"
              }
            ]
          }
        ],
        "performer": [
          {
            "actor": {
              "reference": "Practitioner/47"
            }
          }
        ],
        "used": [
          {
            "reference": "Device/49"
          }
        ]
      }
    },
    {
      "resource": {
        "resourceType": "Practitioner",
        "id": "Practitioner/47",
        "identifier": [
          {
            "value": "2.16.840.1.113883.19.5.9999.456"
          }
        ],
        "address": [
          {
            "line": [
              "1001 Village Avenue"
            ],
            "city": "Portland",
            "state": "OR",
            "postalCode": "99123",
            "country": "US"
          }
        ],
        "telecom": [
          {
            "use": "work",
            "value": "555-555-5000"
          }
        ],
        "practitionerRole": [
          {
            "managingOrganization": {
              "reference": "Organization/48"
            }
          }
        ]
      }
    },
    {
      "resource": {
        "resourceType": "Organization",
        "id": "Organization/48",
        "name": "Community Health and Hospitals",
        "telecom": [
          {
            "use": "work",
            "value": "555-555-5000"
          }
        ],
        "address": [
          {
            "line": [
              "1001 Village\n\t\t\t\t\t\t\t\t\t\t\t\tAvenue"
            ],
            "city": "Portland",
            "state": "OR",
            "postalCode": "99123",
            "country": "US"
          }
        ]
      }
    },
    {
      "resource": {
        "resourceType": "Device",
        "id": "Device/49",
        "patient": {
          "reference": "Patient/1"
        },
        "identifier": [
          {
            "value": "742aee30-21c5-11e1-bfc2-0800200c9a66"
          }
        ],
        "type": {
          "coding": [
            {
              "system": "http://snomed.info/sct",
              "code": "90412006",
              "display": "Colonoscope"
            }
          ]
        }
      }
    },
    {
      "resource": {
        "resourceType": "Procedure",
        "id": "Procedure/50",
        "subject": {
          "reference": "Patient/1"
        },
        "identifier": [
          {
            "value": "2.16.840.1.113883.19"
          }
        ],
        "code": {
          "coding": [
            {
              "system": "http://snomed.info/sct",
              "code": "274025005",
              "display": "Colonic polypectomy"
            }
          ]
        },
        "status": "aborted",
        "performedDateTime": "2011-02-03",
        "bodySite": [
          {
            "coding": [
              {
                "system": "http://snomed.info/sct",
                "code": "416949008",
                "display": "Abdomen and pelvis"
              }
            ]
          }
        ],
        "performer": [
          {
            "actor": {
              "reference": "Practitioner/51"
            }
          }
        ],
        "used": [
          {
            "reference": "Device/53"
          }
        ],
        "location": {
          "reference": "Location/54"
        }
      }
    },
    {
      "resource": {
        "resourceType": "Practitioner",
        "id": "Practitioner/51",
        "identifier": [
          {
            "value": "2.16.840.1.113883.19.5"
          }
        ],
        "address": [
          {
            "line": [
              "17 Daws Rd."
            ],
            "city": "Blue Bell",
            "state": "MA",
            "postalCode": "02368",
            "country": "US"
          }
        ],
        "telecom": [
          {
            "use": "work",
            "value": "(555)555-555-1234"
          }
        ],
        "practitionerRole": [
          {
            "managingOrganization": {
              "reference": "Organization/52"
            }
          }
        ]
      }
    },
    {
      "resource": {
        "resourceType": "Organization",
        "id": "Organization/52",
        "name": "Community Health and Hospitals"
      }
    },
    {
      "resource": {
        "resourceType": "Device",
        "id": "Device/53",
        "patient": {
          "reference": "Patient/1"
        }
      }
    },
    {
      "resource": {
        "resourceType": "Location",
        "id": "Location/54",
        "type": {
          "coding": [
            {
              "system": "urn:oid:2.16.840.1.113883.6.259",
              "code": "1118-9",
              "display": "Gastroenterology Clinic"
            }
          ]
        },
        "address": {
          "line": [
            "17 Daws Rd."
          ],
          "city": "Blue Bell",
          "state": "MA",
          "postalCode": "02368",
          "country": "US"
        },
        "name": "Community Gastroenterology Clinic"
      }
    },
    {
      "resource": {
        "resourceType": "Observation",
        "id": "Observation/55",
        "subject": {
          "reference": "Patient/1"
        },
        "identifier": [
          {
            "value": "107c2dc0-67a5-11db-bd13-0800200c9a66"
          }
        ],
        "code": {
          "coding": [
            {
              "system": "http://loinc.org",
              "code": "30313-1",
              "display": "HGB"
            }
          ]
        },
        "status": "completed",
        "effectiveDateTime": "2000-03-23T14:30:00",
        "valueQuantity": {
          "value": "13.2",
          "unit": "g/dl"
        },
        "interpretation": {
          "coding": [
            {
              "system": "urn:oid:2.16.840.1.113883.5.83",
              "code": "N"
            }
          ]
        },
        "referenceRange": [
          {
            "text": "M 13-18 g/dl; F 12-16 g/dl"
          }
        ]
      }
    },
    {
      "resource": {
        "resourceType": "Observation",
        "id": "Observation/56",
        "subject": {
          "reference": "Patient/1"
        },
        "identifier": [
          {
            "value": "107c2dc0-67a5-11db-bd13-0800200c9a66"
          }
        ],
        "code": {
          "coding": [
            {
              "system": "http://loinc.org",
              "code": "33765-9",
              "display": "WBC"
            }
          ]
        },
        "status": "completed",
        "effectiveDateTime": "2000-03-23T14:30:00",
        "valueQuantity": {
          "value": "6.7",
          "unit": "10+3/ul"
        },
        "interpretation": {
          "coding": [
            {
              "system": "urn:oid:2.16.840.1.113883.5.83",
              "code": "N"
            }
          ]
        },
        "referenceRange": [
          {
            "low": {
              "value": "4.3",
              "unit": "10+3/ul"
            },
            "high": {
              "value": "10.8",
              "unit": "10+3/ul"
            }
          }
        ]
      }
    },
    {
      "resource": {
        "resourceType": "Observation",
        "id": "Observation/57",
        "subject": {
          "reference": "Patient/1"
        },
        "identifier": [
          {
            "value": "107c2dc0-67a5-11db-bd13-0800200c9a66"
          }
        ],
        "code": {
          "coding": [
            {
              "system": "http://loinc.org",
              "code": "26515-7",
              "display": "PLT"
            }
          ]
        },
        "status": "completed",
        "effectiveDateTime": "2000-03-23T14:30:00",
        "valueQuantity": {
          "value": "123",
          "unit": "10+3/ul"
        },
        "interpretation": {
          "coding": [
            {
              "system": "urn:oid:2.16.840.1.113883.5.83",
              "code": "L"
            }
          ]
        },
        "referenceRange": [
          {
            "low": {
              "value": "150",
              "unit": "10+3/ul"
            },
            "high": {
              "value": "350",
              "unit": "10+3/ul"
            }
          }
        ]
      }
    },
    {
      "resource": {
        "resourceType": "Observation",
        "id": "Observation/58",
        "subject": {
          "reference": "Patient/1"
        },
        "identifier": [
          {
            "value": "2.16.840.1.113883.19"
          }
        ],
        "code": {
          "coding": [
            {
              "system": "urn:oid:2.16.840.1.113883.5.4",
              "code": "ASSERTION"
            }
          ]
        },
        "status": "completed",
        "effectivePeriod": {
          "start": "2005-05-01",
          "end": "2009-02-27T13:00:00"
        },
        "valueCodeableConcept": {
          "coding": [
            {
              "system": "http://snomed.info/sct",
              "code": "8517006",
              "display": "Former smoker"
            }
          ]
        }
      }
    },
    {
      "resource": {
        "resourceType": "Observation",
        "id": "Observation/59",
        "subject": {
          "reference": "Patient/1"
        },
        "category": {
          "coding": [
            {
              "code": "social-history",
              "display": "Social history"
            }
          ]
        },
        "identifier": [
          {
            "value": "9b56c25d-9104-45ee-9fa4-e0f3afaa01c1"
          }
        ],
        "code": {
          "coding": [
            {
              "system": "http://snomed.info/sct",
              "code": "229819007",
              "display": "Tobacco use and exposure"
            }
          ]
        },
        "status": "completed",
        "effectivePeriod": {
          "start": "2005-05-01",
          "end": "2009-02-27T13:00:00"
        },
        "valueString": "1 pack per day"
      }
    },
    {
      "resource": {
        "resourceType": "Observation",
        "id": "Observation/60",
        "subject": {
          "reference": "Patient/1"
        },
        "category": {
          "coding": [
            {
              "code": "social-history",
              "display": "Social history"
            }
          ]
        },
        "identifier": [
          {
            "value": "45efb604-7049-4a2e-ad33-d38556c9636c"
          }
        ],
        "code": {
          "coding": [
            {
              "system": "http://snomed.info/sct",
              "code": "229819007",
              "display": "Tobacco use and exposure"
            }
          ]
        },
        "status": "completed",
        "effectivePeriod": {
          "start": "2009-02-27T13:00:00"
        },
        "valueString": "None"
      }
    },
    {
      "resource": {
        "resourceType": "Observation",
        "id": "Observation/61",
        "subject": {
          "reference": "Patient/1"
        },
        "category": {
          "coding": [
            {
              "code": "social-history",
              "display": "Social history"
            }
          ]
        },
        "identifier": [
          {
            "value": "37f76c51-6411-4e1d-8a37-957fd49d2cef"
          }
        ],
        "code": {
          "coding": [
            {
              "system": "http://snomed.info/sct",
              "code": "160573003",
              "display": "Alcohol consumption"
            }
          ]
        },
        "status": "completed",
        "effectivePeriod": {
          "start": "2005-05-01"
        },
        "valueString": "None"
      }
    },
    {
      "resource": {
        "resourceType": "Observation",
        "id": "Observation/62",
        "subject": {
          "reference": "Patient/1"
        },
        "identifier": [
          {
            "value": "c6f88321-67ad-11db-bd13-0800200c9a66"
          }
        ],
        "code": {
          "coding": [
            {
              "system": "http://loinc.org",
              "code": "8302-2",
              "display": "Height"
            }
          ]
        },
        "status": "completed",
        "effectiveDateTime": "1999-11-14",
        "valueQuantity": {
          "value": "177",
          "unit": "cm"
        },
        "interpretation": {
          "coding": [
            {
              "system": "urn:oid:2.16.840.1.113883.5.83",
              "code": "N"
            }
          ]
        }
      }
    },
    {
      "resource": {
        "resourceType": "Observation",
        "id": "Observation/63",
        "subject": {
          "reference": "Patient/1"
        },
        "identifier": [
          {
            "value": "c6f88321-67ad-11db-bd13-0800200c9a66"
          }
        ],
        "code": {
          "coding": [
            {
              "system": "http://loinc.org",
              "code": "3141-9",
              "display": "Patient Body Weight - Measured"
            }
          ]
        },
        "status": "completed",
        "effectiveDateTime": "1999-11-14",
        "valueQuantity": {
          "value": "86",
          "unit": "kg"
        },
        "interpretation": {
          "coding": [
            {
              "system": "urn:oid:2.16.840.1.113883.5.83",
              "code": "N"
            }
          ]
        }
      }
    },
    {
      "resource": {
        "resourceType": "Observation",
        "id": "Observation/64",
        "subject": {
          "reference": "Patient/1"
        },
        "identifier": [
          {
            "value": "c6f88321-67ad-11db-bd13-0800200c9a66"
          }
        ],
        "code": {
          "coding": [
            {
              "system": "http://loinc.org",
              "code": "8480-6",
              "display": "Intravascular Systolic"
            }
          ]
        },
        "status": "completed",
        "effectiveDateTime": "1999-11-14",
        "valueQuantity": {
          "value": "132",
          "unit": "mm[Hg]"
        },
        "interpretation": {
          "coding": [
            {
              "system": "urn:oid:2.16.840.1.113883.5.83",
              "code": "N"
            }
          ]
        }
      }
    },
    {
      "resource": {
        "resourceType": "Observation",
        "id": "Observation/65",
        "subject": {
          "reference": "Patient/1"
        },
        "identifier": [
          {
            "value": "c6f88321-67ad-11db-bd13-0800200c9a66"
          }
        ],
        "code": {
          "coding": [
            {
              "system": "http://loinc.org",
              "code": "8462-4",
              "display": "Intravascular Diastolic"
            }
          ]
        },
        "status": "completed",
        "effectiveDateTime": "1999-11-14",
        "valueQuantity": {
          "value": "80",
          "unit": "mm[Hg]"
        },
        "interpretation": {
          "coding": [
            {
              "system": "urn:oid:2.16.840.1.113883.5.83",
              "code": "N"
            }
          ]
        }
      }
    },
    {
      "resource": {
        "resourceType": "Observation",
        "id": "Observation/66",
        "subject": {
          "reference": "Patient/1"
        },
        "identifier": [
          {
            "value": "c6f88321-67ad-11db-bd13-0800200c9a66"
          }
        ],
        "code": {
          "coding": [
            {
              "system": "http://loinc.org",
              "code": "8302-2",
              "display": "Height"
            }
          ]
        },
        "status": "completed",
        "effectiveDateTime": "2000-04-07",
        "valueQuantity": {
          "value": "177",
          "unit": "cm"
        },
        "interpretation": {
          "coding": [
            {
              "system": "urn:oid:2.16.840.1.113883.5.83",
              "code": "N"
            }
          ]
        }
      }
    },
    {
      "resource": {
        "resourceType": "Observation",
        "id": "Observation/67",
        "subject": {
          "reference": "Patient/1"
        },
        "identifier": [
          {
            "value": "c6f88321-67ad-11db-bd13-0800200c9a66"
          }
        ],
        "code": {
          "coding": [
            {
              "system": "http://loinc.org",
              "code": "3141-9",
              "display": "Patient Body Weight - Measured"
            }
          ]
        },
        "status": "completed",
        "effectiveDateTime": "2000-04-07",
        "valueQuantity": {
          "value": "90",
          "unit": "kg"
        },
        "interpretation": {
          "coding": [
            {
              "system": "urn:oid:2.16.840.1.113883.5.83",
              "code": "N"
            }
          ]
        }
      }
    },
    {
      "resource": {
        "resourceType": "Observation",
        "id": "Observation/68",
        "subject": {
          "reference": "Patient/1"
        },
        "identifier": [
          {
            "value": "c6f88321-67ad-11db-bd13-0800200c9a66"
          }
        ],
        "code": {
          "coding": [
            {
              "system": "http://loinc.org",
              "code": "8480-6",
              "display": "Intravascular Systolic"
            }
          ]
        },
        "status": "completed",
        "effectiveDateTime": "2000-04-07",
        "valueQuantity": {
          "value": "145",
          "unit": "mm[Hg]"
        },
        "interpretation": {
          "coding": [
            {
              "system": "urn:oid:2.16.840.1.113883.5.83",
              "code": "N"
            }
          ]
        }
      }
    },
    {
      "resource": {
        "resourceType": "Observation",
        "id": "Observation/69",
        "subject": {
          "reference": "Patient/1"
        },
        "identifier": [
          {
            "value": "c6f88321-67ad-11db-bd13-0800200c9a66"
          }
        ],
        "code": {
          "coding": [
            {
              "system": "http://loinc.org",
              "code": "8462-4",
              "display": "Intravascular Diastolic"
            }
          ]
        },
        "status": "completed",
        "effectiveDateTime": "2000-04-07",
        "valueQuantity": {
          "value": "88",
          "unit": "mm[Hg]"
        },
        "interpretation": {
          "coding": [
            {
              "system": "urn:oid:2.16.840.1.113883.5.83",
              "code": "N"
            }
          ]
        }
      }
    }
  ],
  "id": "urn:hl7ii:2.16.840.1.113883.19.5.99999.1:TT988"
}