{
  "resourceType": "Bundle",
  "entry": [
    {
      "resource": {
        "resourceType": "Composition",
        "id": "Composition/0",
        "section": [
          {
            "subject": {
              "reference": "Patient/1"
            },
            "content": {
              "reference": "Organization/2"
            }
          },
          {
            "subject": {
              "reference": "Patient/1"
            },
            "content": {
              "reference": "AllergyIntolerance/3"
            }
          },
          {
            "subject": {
              "reference": "Patient/1"
            },
            "content": {
              "reference": "AllergyIntolerance/4"
            }
          },
          {
            "subject": {
              "reference": "Patient/1"
            },
            "content": {
              "reference": "AllergyIntolerance/5"
            }
          },
          {
            "subject": {
              "reference": "Patient/1"
            },
            "content": {
              "reference": "Encounter/6"
            }
          },
          {
            "subject": {
              "reference": "Patient/1"
            },
            "content": {
              "reference": "Practitioner/7"
            }
          },
          {
            "subject": {
              "reference": "Patient/1"
            },
            "content": {
              "reference": "Location/8"
            }
          },
          {
            "subject": {
              "reference": "Patient/1"
            },
            "content": {
              "reference": "FamilyMemberHistory/9"
            }
          },
          {
            "subject": {
              "reference": "Patient/1"
            },
            "content": {
              "reference": "ClinicalImpression/10"
            }
          },
          {
            "subject": {
              "reference": "Patient/1"
            },
            "content": {
              "reference": "ClinicalImpression/11"
            }
          },
          {
            "subject": {
              "reference": "Patient/1"
            },
            "content": {
              "reference": "Immunization/12"
            }
          },
          {
            "subject": {
              "reference": "Patient/1"
            },
            "content": {
              "reference": "Organization/13"
            }
          },
          {
            "subject": {
              "reference": "Patient/1"
            },
            "content": {
              "reference": "Practitioner/14"
            }
          },
          {
            "subject": {
              "reference": "Patient/1"
            },
            "content": {
              "reference": "Organization/15"
            }
          },
          {
            "subject": {
              "reference": "Patient/1"
            },
            "content": {
              "reference": "Immunization/16"
            }
          },
          {
            "subject": {
              "reference": "Patient/1"
            },
            "content": {
              "reference": "Organization/17"
            }
          },
          {
            "subject": {
              "reference": "Patient/1"
            },
            "content": {
              "reference": "Practitioner/18"
            }
          },
          {
            "subject": {
              "reference": "Patient/1"
            },
            "content": {
              "reference": "Organization/19"
            }
          },
          {
            "subject": {
              "reference": "Patient/1"
            },
            "content": {
              "reference": "Immunization/20"
            }
          },
          {
            "subject": {
              "reference": "Patient/1"
            },
            "content": {
              "reference": "Organization/21"
            }
          },
          {
            "subject": {
              "reference": "Patient/1"
            },
            "content": {
              "reference": "Practitioner/22"
            }
          },
          {
            "subject": {
              "reference": "Patient/1"
            },
            "content": {
              "reference": "Organization/23"
            }
          },
          {
            "subject": {
              "reference": "Patient/1"
            },
            "content": {
              "reference": "Immunization/24"
            }
          },
          {
            "subject": {
              "reference": "Patient/1"
            },
            "content": {
              "reference": "Organization/25"
            }
          },
          {
            "subject": {
              "reference": "Patient/1"
            },
            "content": {
              "reference": "Practitioner/26"
            }
          },
          {
            "subject": {
              "reference": "Patient/1"
            },
            "content": {
              "reference": "Organization/27"
            }
          },
          {
            "subject": {
              "reference": "Patient/1"
            },
            "content": {
              "reference": "Device/28"
            }
          },
          {
            "subject": {
              "reference": "Patient/1"
            },
            "content": {
              "reference": "Device/29"
            }
          },
          {
            "subject": {
              "reference": "Patient/1"
            },
            "content": {
              "reference": "Device/30"
            }
          },
          {
            "subject": {
              "reference": "Patient/1"
            },
            "content": {
              "reference": "MedicationPrescription/31"
            }
          },
          {
            "subject": {
              "reference": "Patient/1"
            },
            "content": {
              "reference": "MedicationAdministration/32"
            }
          },
          {
            "subject": {
              "reference": "Patient/1"
            },
            "content": {
              "reference": "Medication/33"
            }
          },
          {
            "subject": {
              "reference": "Patient/1"
            },
            "content": {
              "reference": "Organization/34"
            }
          },
          {
            "subject": {
              "reference": "Patient/1"
            },
            "content": {
              "reference": "Practitioner/35"
            }
          },
          {
            "subject": {
              "reference": "Patient/1"
            },
            "content": {
              "reference": "Organization/36"
            }
          },
          {
            "subject": {
              "reference": "Patient/1"
            },
            "content": {
              "reference": "Condition/37"
            }
          },
          {
            "subject": {
              "reference": "Patient/1"
            },
            "content": {
              "reference": "Medication/38"
            }
          },
          {
            "subject": {
              "reference": "Patient/1"
            },
            "content": {
              "reference": "Organization/39"
            }
          },
          {
            "subject": {
              "reference": "Patient/1"
            },
            "content": {
              "reference": "Practitioner/40"
            }
          },
          {
            "subject": {
              "reference": "Patient/1"
            },
            "content": {
              "reference": "Claim/41"
            }
          },
          {
            "subject": {
              "reference": "Patient/1"
            },
            "content": {
              "reference": "Coverage/42"
            }
          },
          {
            "subject": {
              "reference": "Patient/1"
            },
            "content": {
              "reference": "Organization/43"
            }
          },
          {
            "subject": {
              "reference": "Patient/1"
            },
            "content": {
              "reference": "CarePlan/44"
            }
          },
          {
            "subject": {
              "reference": "Patient/1"
            },
            "content": {
              "reference": "ProcedureRequest/45"
            }
          },
          {
            "subject": {
              "reference": "Patient/1"
            },
            "content": {
              "reference": "ProcedureRequest/46"
            }
          },
          {
            "subject": {
              "reference": "Patient/1"
            },
            "content": {
              "reference": "ProcedureRequest/47"
            }
          },
          {
            "subject": {
              "reference": "Patient/1"
            },
            "content": {
              "reference": "ProcedureRequest/48"
            }
          },
          {
            "subject": {
              "reference": "Patient/1"
            },
            "content": {
              "reference": "ClinicalImpression/49"
            }
          },
          {
            "subject": {
              "reference": "Patient/1"
            },
            "content": {
              "reference": "Condition/50"
            }
          },
          {
            "subject": {
              "reference": "Patient/1"
            },
            "content": {
              "reference": "Observation/51"
            }
          },
          {
            "subject": {
              "reference": "Patient/1"
            },
            "content": {
              "reference": "Condition/52"
            }
          },
          {
            "subject": {
              "reference": "Patient/1"
            },
            "content": {
              "reference": "Observation/53"
            }
          },
          {
            "subject": {
              "reference": "Patient/1"
            },
            "content": {
              "reference": "Procedure/54"
            }
          },
          {
            "subject": {
              "reference": "Patient/1"
            },
            "content": {
              "reference": "Practitioner/55"
            }
          },
          {
            "subject": {
              "reference": "Patient/1"
            },
            "content": {
              "reference": "Organization/56"
            }
          },
          {
            "subject": {
              "reference": "Patient/1"
            },
            "content": {
              "reference": "Device/57"
            }
          },
          {
            "subject": {
              "reference": "Patient/1"
            },
            "content": {
              "reference": "Observation/58"
            }
          },
          {
            "subject": {
              "reference": "Patient/1"
            },
            "content": {
              "reference": "Practitioner/59"
            }
          },
          {
            "subject": {
              "reference": "Patient/1"
            },
            "content": {
              "reference": "Organization/60"
            }
          },
          {
            "subject": {
              "reference": "Patient/1"
            },
            "content": {
              "reference": "Location/61"
            }
          },
          {
            "subject": {
              "reference": "Patient/1"
            },
            "content": {
              "reference": "Observation/62"
            }
          },
          {
            "subject": {
              "reference": "Patient/1"
            },
            "content": {
              "reference": "Observation/63"
            }
          },
          {
            "subject": {
              "reference": "Patient/1"
            },
            "content": {
              "reference": "Observation/64"
            }
          },
          {
            "subject": {
              "reference": "Patient/1"
            },
            "content": {
              "reference": "Observation/65"
            }
          },
          {
            "subject": {
              "reference": "Patient/1"
            },
            "content": {
              "reference": "Observation/66"
            }
          },
          {
            "subject": {
              "reference": "Patient/1"
            },
            "content": {
              "reference": "Observation/67"
            }
          },
          {
            "subject": {
              "reference": "Patient/1"
            },
            "content": {
              "reference": "Observation/68"
            }
          },
          {
            "subject": {
              "reference": "Patient/1"
            },
            "content": {
              "reference": "Observation/69"
            }
          },
          {
            "subject": {
              "reference": "Patient/1"
            },
            "content": {
              "reference": "Observation/70"
            }
          },
          {
            "subject": {
              "reference": "Patient/1"
            },
            "content": {
              "reference": "Observation/71"
            }
          },
          {
            "subject": {
              "reference": "Patient/1"
            },
            "content": {
              "reference": "Observation/72"
            }
          },
          {
            "subject": {
              "reference": "Patient/1"
            },
            "content": {
              "reference": "Observation/73"
            }
          },
          {
            "subject": {
              "reference": "Patient/1"
            },
            "content": {
              "reference": "Observation/74"
            }
          },
          {
            "subject": {
              "reference": "Patient/1"
            },
            "content": {
              "reference": "Observation/75"
            }
          },
          {
            "subject": {
              "reference": "Patient/1"
            },
            "content": {
              "reference": "Observation/76"
            }
          }
        ],
        "type": {
          "coding": [
            {
              "system": "http://loinc.org",
              "code": "34133-9",
              "display": "Summarization of Episode Note"
            },
            {
              "system": "LOINC",
              "code": "34133-9"
            }
          ]
        },
        "title": "Community Health and Hospitals: Health Summary"
      }
    },
    {
      "resource": {
        "resourceType": "Patient",
        "id": "Patient/1",
        "identifier": [
          {
            "system": "urn:oid:2.16.840.1.113883.19.5.99999.2",
            "value": "998991"
          },
          {
            "system": "urn:oid:2.16.840.1.113883.4.1",
            "value": "111-00-2330"
          }
        ],
        "address": [
          {
            "use": "home",
            "line": [
              "1357 Amber Drive"
            ],
            "city": "Beaverton",
            "state": "OR",
            "postalCode": "97867",
            "country": "US"
          }
        ],
        "telecom": [
          {
            "use": "home",
            "system": "phone",
            "value": "(816)276-6909"
          }
        ],
        "name": [
          {
            "use": "usual",
            "given": [
              "Isabella",
              "Isa"
            ],
            "family": [
              "Jones"
            ]
          }
        ],
        "gender": "F",
        "birthDate": "1975-05-01",
        "maritalStatus": {
          "coding": [
            {
              "system": "urn:oid:2.16.840.1.113883.5.2",
              "code": "M",
              "display": "Married"
            }
          ]
        },
        "extension": [
          {
            "url": "http://hl7.org/fhir/StructureDefinition/us-core-religion",
            "valueCodeableConcept": {
              "coding": [
                {
                  "system": "urn:oid:2.16.840.1.113883.5.1076",
                  "code": "1013",
                  "display": "Christian (non-Catholic, non-specific)"
                }
              ]
            }
          },
          {
            "url": "http://hl7.org/fhir/Profile/us-core#race",
            "valueCodeableConcept": {
              "coding": [
                {
                  "system": "urn:oid:2.16.840.1.113883.6.238",
                  "code": "2106-3",
                  "display": "White"
                }
              ]
            }
          },
          {
            "url": "http://hl7.org/fhir/Profile/us-core#ethnicity",
            "valueCodeableConcept": {
              "coding": [
                {
                  "system": "urn:oid:2.16.840.1.113883.6.238",
                  "code": "2186-5",
                  "display": "Not Hispanic or Latino"
                }
              ]
            }
          },
          {
            "url": "http://hl7.org/fhir/StructureDefinition/birthPlace",
            "valueAddress": {
              "city": "Beaverton",
              "state": "OR",
              "postalCode": "97867",
              "country": "US"
            }
          }
        ],
        "contact": [
          {
            "relationship": [
              {
                "coding": [
                  {
                    "system": "urn:oid:2.16.840.1.113883.5.111",
                    "code": "PRN",
                    "display": "Parent"
                  }
                ]
              }
            ],
            "address": {
              "line": [
                "1357 Amber Drive"
              ],
              "city": "Beaverton",
              "state": "OR",
              "postalCode": "97867",
              "country": "US"
            },
            "telecom": [
              {
                "use": "home",
                "system": "phone",
                "value": "(816)276-6909"
              }
            ],
            "name": [
              {
                "given": [
                  "Ralph"
                ],
                "family": [
                  "Jones"
                ]
              }
            ]
          },
          {
            "identifier": [
              {
                "value": "329fcdf0-7ab3-11db-9fe1-0800200c9a66"
              }
            ],
            "relationship": {
              "coding": [
                {
                  "system": "urn:oid:2.16.840.1.113883.5.111",
                  "code": "GUAR"
                }
              ]
            },
            "address": [
              {
                "use": "home",
                "line": [
                  "17 Daws Rd."
                ],
                "city": "Blue Bell",
                "state": "MA",
                "postalCode": "02368",
                "country": "US"
              }
            ],
            "telecom": [
              {
                "use": "home",
                "system": "phone",
                "value": "(781)555-1212"
              }
            ],
            "name": {
              "name": [
                {
                  "given": [
                    "Adam",
                    "Frankie"
                  ],
                  "family": [
                    "Everyman"
                  ]
                }
              ]
            }
          }
        ],
        "communication": [
          {
            "language": {
              "coding": [
                {
                  "code": "en"
                }
              ]
            },
            "preferred": "true"
          }
        ],
        "managingOrganization": {
          "reference": "Organization/2"
        }
      }
    },
    {
      "resource": {
        "resourceType": "Organization",
        "id": "Organization/2",
        "name": "Community Health and Hospitals",
        "telecom": [
          {
            "use": "work",
            "system": "phone",
            "value": " 555-555-5000"
          }
        ],
        "address": [
          {
            "line": [
              "1001 Village Avenue"
            ],
            "city": "Portland",
            "state": "OR",
            "postalCode": "99123",
            "country": "US"
          }
        ]
      }
    },
    {
      "resource": {
        "resourceType": "AllergyIntolerance",
        "id": "AllergyIntolerance/3",
        "patient": {
          "reference": "Patient/1"
        },
        "status": "Inactive",
        "lastOccurence": "2007-05-01",
        "event": [
          {
            "onset": "2007-05-01",
            "manifestation": [
              {
                "coding": [
                  {
                    "system": "http://snomed.info/sct",
                    "code": "419511003",
                    "display": "Propensity to adverse reactions to drug"
                  }
                ]
              },
              {
                "coding": [
                  {
                    "system": "http://snomed.info/sct",
                    "code": "422587007",
                    "display": "Nausea"
                  }
                ]
              }
            ],
            "severity": "Moderate to severe"
          }
        ],
        "substance": [
          {
            "coding": [
              {
                "system": "http://www.nlm.nih.gov/research/umls/rxnorm",
                "code": "314422",
                "display": "ALLERGENIC EXTRACT, PENICILLIN"
              }
            ]
          }
        ]
      }
    },
    {
      "resource": {
        "resourceType": "AllergyIntolerance",
        "id": "AllergyIntolerance/4",
        "patient": {
          "reference": "Patient/1"
        },
        "status": "Active",
        "lastOccurence": "2006-05-01",
        "event": [
          {
            "onset": "2006-05-01",
            "manifestation": [
              {
                "coding": [
                  {
                    "system": "http://snomed.info/sct",
                    "code": "419511003",
                    "display": "Propensity to adverse reactions to drug"
                  }
                ]
              },
              {
                "coding": [
                  {
                    "system": "http://snomed.info/sct",
                    "code": "56018004",
                    "display": "Wheezing"
                  }
                ]
              }
            ],
            "severity": "Moderate"
          }
        ],
        "substance": [
          {
            "coding": [
              {
                "system": "http://www.nlm.nih.gov/research/umls/rxnorm",
                "code": "2670",
                "display": "Codeine"
              }
            ]
          }
        ]
      }
    },
    {
      "resource": {
        "resourceType": "AllergyIntolerance",
        "id": "AllergyIntolerance/5",
        "patient": {
          "reference": "Patient/1"
        },
        "status": "Active",
        "lastOccurence": "2008-05-01",
        "event": [
          {
            "onset": "2008-05-01",
            "manifestation": [
              {
                "coding": [
                  {
                    "system": "http://snomed.info/sct",
                    "code": "59037007",
                    "display": "Drug intolerance"
                  }
                ]
              },
              {
                "coding": [
                  {
                    "system": "http://snomed.info/sct",
                    "code": "247472004",
                    "display": "Hives"
                  }
                ]
              }
            ],
            "severity": "Mild to moderate"
          }
        ],
        "substance": [
          {
            "coding": [
              {
                "system": "http://www.nlm.nih.gov/research/umls/rxnorm",
                "code": "1191",
                "display": "Aspirin"
              }
            ]
          }
        ]
      }
    },
    {
      "resource": {
        "resourceType": "Encounter",
        "id": "Encounter/6",
        "patient": {
          "reference": "Patient/1"
        },
        "identifier": [
          {
            "value": "2a620155-9d11-439e-92b3-5d9815ff4de8"
          }
        ],
        "type": {
          "coding": [
            {
              "system": "http://www.ama-assn.org/go/cpt",
              "code": "99213",
              "display": "Office outpatient visit 15 minutes"
            },
            {
              "system": "urn:oid:2.16.840.1.113883.5.4",
              "code": "AMB",
              "display": "Ambulatory"
            }
          ]
        },
        "period": {
          "start": "2009-02-27T13:00:00",
          "end": "2009-02-27T13:00:00"
        },
        "participant": [
          {
            "type": {
              "coding": [
                {
                  "system": "http://hl7.org/fhir/v3/ParticipationType",
                  "code": "ATND",
                  "display": "attender"
                }
              ]
            },
            "individual": {
              "reference": "Practitioner/7"
            }
          }
        ],
        "location": [
          {
            "reference": "Location/8"
          }
        ],
        "reason": [
          {
            "coding": [
              {
                "system": "http://snomed.info/sct",
                "code": "233604007",
                "display": "Pneumonia"
              }
            ]
          }
        ]
      }
    },
    {
      "resource": {
        "resourceType": "Practitioner",
        "id": "Practitioner/7",
        "identifier": [
          {
            "value": "PseduoMD-3"
          }
        ],
        "practitionerRole": [
          {
            "specialty": {
              "coding": [
                {
                  "system": "http://snomed.info/sct",
                  "code": "59058001",
                  "display": "General Physician"
                }
              ]
            }
          }
        ]
      }
    },
    {
      "resource": {
        "resourceType": "Location",
        "id": "Location/8",
        "type": {
          "coding": [
            {
              "system": "urn:oid:2.16.840.1.113883.6.259",
              "code": "1160-1",
              "display": "Urgent Care Center"
            }
          ]
        },
        "address": {
          "line": [
            "17 Daws Rd."
          ],
          "city": "Blue Bell",
          "state": "MA",
          "postalCode": "02368",
          "country": "US"
        },
        "name": "Community Urgent Care Center"
      }
    },
    {
      "resource": {
        "resourceType": "FamilyMemberHistory",
        "id": "FamilyMemberHistory/9",
        "patient": {
          "reference": "Patient/1"
        },
        "relationship": {
          "coding": [
            {
              "system": "urn:oid:2.16.840.1.113883.5.111",
              "code": "FTH",
              "display": "Father"
            }
          ]
        },
        "gender": "male",
        "bornDate": "1910",
        "condition": [
          {
            "type": {
              "coding": [
                {
                  "system": "http://snomed.info/sct",
                  "code": "22298006",
                  "display": "Myocardial infarction"
                }
              ]
            },
            "outcome": "Dead",
            "onsetAge": "57"
          },
          {
            "type": {
              "coding": [
                {
                  "system": "http://snomed.info/sct",
                  "code": "44054006",
                  "display": "Diabetes mellitus type 2"
                }
              ]
            },
            "onsetAge": "40"
          }
        ]
      }
    },
    {
      "resource": {
        "resourceType": "ClinicalImpression",
        "id": "ClinicalImpression/10",
        "patient": {
          "reference": "Patient/1"
        },
        "identifier": [
          {
            "value": "c6b5a04b-2bf4-49d1-8336-636a3813df0a"
          }
        ],
        "code": {
          "coding": [
            {
              "system": "http://loinc.org",
              "code": "57251-1",
              "display": "Ambulation"
            }
          ]
        },
        "status": "completed",
        "appliesDateTime": "2009-03-11T12:30:00",
        "valueCodeableConcept": {
          "coding": [
            {
              "system": "http://snomed.info/sct",
              "code": "371153006",
              "display": "Independently able"
            }
          ]
        },
        "interpretation": {
          "coding": [
            {
              "system": "urn:oid:2.16.840.1.113883.5.83",
              "code": "B"
            }
          ]
        }
      }
    },
    {
      "resource": {
        "resourceType": "ClinicalImpression",
        "id": "ClinicalImpression/11",
        "patient": {
          "reference": "Patient/1"
        },
        "identifier": [
          {
            "value": "c6b5a04b-2bf4-49d1-8336-636a3813df0a"
          }
        ],
        "code": {
          "coding": [
            {
              "system": "http://snomed.info/sct",
              "code": "373930000",
              "display": "Cognitive function finding"
            }
          ]
        },
        "status": "completed",
        "appliesDateTime": "2009-03-11T12:30:00",
        "valueCodeableConcept": {
          "coding": [
            {
              "system": "http://snomed.info/sct",
              "code": "61372001",
              "display": "Aggressive behavior"
            }
          ]
        },
        "interpretation": {
          "coding": [
            {
              "system": "urn:oid:2.16.840.1.113883.5.83",
              "code": "HH"
            }
          ]
        },
        "referenceRange": {
          "text": "Non Aggressive to Aggressive"
        }
      }
    },
    {
      "resource": {
        "resourceType": "Immunization",
        "id": "Immunization/12",
        "patient": {
          "reference": "Patient/1"
        },
        "status": "completed",
        "date": "1999-11",
        "route": {
          "coding": [
            {
              "system": "urn:oid:2.16.840.1.113883.3.26.1.1",
              "code": "C28161",
              "display": "Intramuscular injection"
            }
          ]
        },
        "doseQuantity": {
          "value": "50",
          "units": "mcg"
        },
        "vaccineType": {
          "coding": [
            {
              "system": "http://www2a.cdc.gov/vaccines/iis/iisstandards/vaccines.asp?rpt=cvx",
              "code": "88",
              "display": "Influenza virus vaccine"
            }
          ]
        },
        "lotNumber": "1",
        "manufacturer": {
          "reference": "Organization/13"
        },
        "performer": {
          "reference": "Practitioner/14"
        }
      }
    },
    {
      "resource": {
        "resourceType": "Organization",
        "id": "Organization/13",
        "name": "Health LS - Immuno Inc."
      }
    },
    {
      "resource": {
        "resourceType": "Practitioner",
        "id": "Practitioner/14",
        "identifier": [
          {
            "value": "2.16.840.1.113883.19.5.9999.456"
          }
        ],
        "address": [
          {
            "line": [
              "1021 Health Drive"
            ],
            "city": "Ann Arbor",
            "state": "MI",
            "postalCode": "99099",
            "country": "US"
          }
        ],
        "name": [
          {
            "given": [
              "Amanda"
            ],
            "family": [
              "Assigned"
            ]
          }
        ],
        "managingOrganization": {
          "reference": "Organization/15"
        },
        "practitionerRole": [
          {
            "managingOrganization": {
              "reference": "Organization/15"
            }
          }
        ]
      }
    },
    {
      "resource": {
        "resourceType": "Organization",
        "id": "Organization/15",
        "name": "Good Health Clinic"
      }
    },
    {
      "resource": {
        "resourceType": "Immunization",
        "id": "Immunization/16",
        "patient": {
          "reference": "Patient/1"
        },
        "wasNotGiven": true,
        "status": "completed",
        "date": "1998-12-15",
        "route": {
          "coding": [
            {
              "system": "urn:oid:2.16.840.1.113883.3.26.1.1",
              "code": "C28161",
              "display": "Intramuscular injection"
            }
          ]
        },
        "doseQuantity": {
          "value": "50",
          "units": "mcg"
        },
        "vaccineType": {
          "coding": [
            {
              "system": "http://www2a.cdc.gov/vaccines/iis/iisstandards/vaccines.asp?rpt=cvx",
              "code": "88",
              "display": "Influenza virus vaccine"
            }
          ]
        },
        "lotNumber": "1",
        "manufacturer": {
          "reference": "Organization/17"
        },
        "performer": {
          "reference": "Practitioner/18"
        }
      }
    },
    {
      "resource": {
        "resourceType": "Organization",
        "id": "Organization/17",
        "name": "Health LS - Immuno Inc."
      }
    },
    {
      "resource": {
        "resourceType": "Practitioner",
        "id": "Practitioner/18",
        "identifier": [
          {
            "value": "2.16.840.1.113883.19.5.9999.456"
          }
        ],
        "address": [
          {
            "line": [
              "1021 Health Drive"
            ],
            "city": "Ann Arbor",
            "state": "MI",
            "postalCode": "99099",
            "country": "US"
          }
        ],
        "name": [
          {
            "given": [
              "Amanda"
            ],
            "family": [
              "Assigned"
            ]
          }
        ],
        "managingOrganization": {
          "reference": "Organization/19"
        },
        "practitionerRole": [
          {
            "managingOrganization": {
              "reference": "Organization/19"
            }
          }
        ]
      }
    },
    {
      "resource": {
        "resourceType": "Organization",
        "id": "Organization/19",
        "name": "Good Health Clinic"
      }
    },
    {
      "resource": {
        "resourceType": "Immunization",
        "id": "Immunization/20",
        "patient": {
          "reference": "Patient/1"
        },
        "status": "completed",
        "date": "1998-12-15",
        "route": {
          "coding": [
            {
              "system": "urn:oid:2.16.840.1.113883.3.26.1.1",
              "code": "C28161",
              "display": "Intramuscular injection"
            }
          ]
        },
        "doseQuantity": {
          "value": "50",
          "units": "mcg"
        },
        "vaccineType": {
          "coding": [
            {
              "system": "http://www2a.cdc.gov/vaccines/iis/iisstandards/vaccines.asp?rpt=cvx",
              "code": "33",
              "display": "Pneumococcal polysaccharide vaccine"
            }
          ]
        },
        "lotNumber": "1",
        "manufacturer": {
          "reference": "Organization/21"
        },
        "performer": {
          "reference": "Practitioner/22"
        }
      }
    },
    {
      "resource": {
        "resourceType": "Organization",
        "id": "Organization/21",
        "name": "Health LS - Immuno Inc."
      }
    },
    {
      "resource": {
        "resourceType": "Practitioner",
        "id": "Practitioner/22",
        "identifier": [
          {
            "value": "2.16.840.1.113883.19.5.9999.456"
          }
        ],
        "address": [
          {
            "line": [
              "1021 Health Drive"
            ],
            "city": "Ann Arbor",
            "state": "MI",
            "postalCode": "99099",
            "country": "US"
          }
        ],
        "name": [
          {
            "given": [
              "Amanda"
            ],
            "family": [
              "Assigned"
            ]
          }
        ],
        "managingOrganization": {
          "reference": "Organization/23"
        },
        "practitionerRole": [
          {
            "managingOrganization": {
              "reference": "Organization/23"
            }
          }
        ]
      }
    },
    {
      "resource": {
        "resourceType": "Organization",
        "id": "Organization/23",
        "name": "Good Health Clinic"
      }
    },
    {
      "resource": {
        "resourceType": "Immunization",
        "id": "Immunization/24",
        "patient": {
          "reference": "Patient/1"
        },
        "wasNotGiven": true,
        "status": "completed",
        "date": "1998-12-15",
        "route": {
          "coding": [
            {
              "system": "urn:oid:2.16.840.1.113883.3.26.1.1",
              "code": "C28161",
              "display": "Intramuscular injection"
            }
          ]
        },
        "doseQuantity": {
          "value": "50",
          "units": "mcg"
        },
        "vaccineType": {
          "coding": [
            {
              "system": "http://www2a.cdc.gov/vaccines/iis/iisstandards/vaccines.asp?rpt=cvx",
              "code": "103",
              "display": "Tetanus and diphtheria toxoids - preservative free"
            }
          ]
        },
        "lotNumber": "1",
        "manufacturer": {
          "reference": "Organization/25"
        },
        "performer": {
          "reference": "Practitioner/26"
        },
        "explanation": {
          "resonNotGiven": [
            {
              "coding": [
                {
                  "system": "urn:oid:2.16.840.1.113883.5.8",
                  "code": "PATOBJ",
                  "display": "Patient Objection"
                }
              ]
            }
          ]
        }
      }
    },
    {
      "resource": {
        "resourceType": "Organization",
        "id": "Organization/25",
        "name": "Health LS - Immuno Inc."
      }
    },
    {
      "resource": {
        "resourceType": "Practitioner",
        "id": "Practitioner/26",
        "identifier": [
          {
            "value": "2.16.840.1.113883.19.5.9999.456"
          }
        ],
        "address": [
          {
            "line": [
              "1021 Health Drive"
            ],
            "city": "Ann Arbor",
            "state": "MI",
            "postalCode": "99099",
            "country": "US"
          }
        ],
        "name": [
          {
            "given": [
              "Amanda"
            ],
            "family": [
              "Assigned"
            ]
          }
        ],
        "managingOrganization": {
          "reference": "Organization/27"
        },
        "practitionerRole": [
          {
            "managingOrganization": {
              "reference": "Organization/27"
            }
          }
        ]
      }
    },
    {
      "resource": {
        "resourceType": "Organization",
        "id": "Organization/27",
        "name": "Good Health Clinic"
      }
    },
    {
      "resource": {
        "resourceType": "Device",
        "id": "Device/28",
        "patient": {
          "reference": "Patient/1"
        },
        "status": "available",
        "identifier": [
          {
            "value": "2413773c-2372-4299-bbe6-5b0f60664489"
          }
        ],
        "type": {
          "coding": [
            {
              "system": "http://snomed.info/sct",
              "code": "72506001",
              "display": "Automatic implantable cardioverter/defibrillator"
            }
          ]
        }
      }
    },
    {
      "resource": {
        "resourceType": "Device",
        "id": "Device/29",
        "patient": {
          "reference": "Patient/1"
        },
        "status": "available",
        "identifier": [
          {
            "value": "eb936010-7b17-11db-9fe1-0800200c9a68"
          }
        ],
        "type": {
          "coding": [
            {
              "system": "http://snomed.info/sct",
              "code": "304120007",
              "display": "Total hip replacement prosthesis"
            }
          ]
        }
      }
    },
    {
      "resource": {
        "resourceType": "Device",
        "id": "Device/30",
        "patient": {
          "reference": "Patient/1"
        },
        "status": "available",
        "identifier": [
          {
            "value": "eb936010-7b17-11db-9fe1-0800200c9a68"
          }
        ],
        "type": {
          "coding": [
            {
              "system": "http://snomed.info/sct",
              "code": "58938008",
              "display": "Wheelchair"
            }
          ]
        }
      }
    },
    {
      "resource": {
        "resourceType": "MedicationPrescription",
        "id": "MedicationPrescription/31",
        "patient": {
          "reference": "Patient/1"
        },
        "dosageInstruction": [
          {
            "schedule": {
              "repeat": {
                "period": "6",
                "periodUnits": "h"
              }
            }
          }
        ],
        "reasonReference": {
          "reference": "Condition/37"
        },
        "status": "completed",
        "dispense": {
          "validityPeriod": {
            "start": "2007-01-03"
          },
          "numberOfRepeatsAllowed": "1",
          "quantity": {
            "value": "75"
          }
        },
        "medication": {
          "reference": "Medication/38"
        },
        "practitioner": {
          "reference": "Practitioner/40"
        }
      }
    },
    {
      "resource": {
        "resourceType": "MedicationAdministration",
        "id": "MedicationAdministration/32",
        "patient": {
          "reference": "Patient/1"
        },
        "prescription": {
          "reference": "MedicationPrescription/31"
        },
        "dosage": [
          {
            "route": {
              "coding": [
                {
                  "system": "urn:oid:2.16.840.1.113883.3.26.1.1",
                  "code": "C38216",
                  "display": "RESPIRATORY (INHALATION)"
                }
              ]
            },
            "quantity": {
              "value": "1",
              "units": "mg/actuat"
            },
            "rate": {
              "numerator": {
                "value": "90",
                "units": "ml/min"
              }
            },
            "method": {
              "coding": [
                {
                  "system": "urn:oid:2.16.840.1.113883.3.26.1.1",
                  "code": "C42944",
                  "display": "INHALANT"
                }
              ]
            }
          }
        ],
        "status": "completed",
        "effectiveTimePeriod": {
          "start": "2007-01-03",
          "end": "2012-05-15"
        },
        "medication": {
          "reference": "Medication/33"
        },
        "practitioner": {
          "reference": "Practitioner/35"
        }
      }
    },
    {
      "resource": {
        "resourceType": "Medication",
        "id": "Medication/33",
        "name": "Proventil HFA",
        "code": {
          "coding": [
            {
              "system": "http://www.nlm.nih.gov/research/umls/rxnorm",
              "code": "219483",
              "display": "Proventil HFA"
            }
          ]
        },
        "manufacturer": {
          "reference": "Organization/34"
        }
      }
    },
    {
      "resource": {
        "resourceType": "Organization",
        "id": "Organization/34",
        "name": "Medication Factory Inc."
      }
    },
    {
      "resource": {
        "resourceType": "Practitioner",
        "id": "Practitioner/35",
        "managingOrganization": {
          "reference": "Organization/36"
        },
        "practitionerRole": [
          {
            "managingOrganization": {
              "reference": "Organization/36"
            }
          }
        ]
      }
    },
    {
      "resource": {
        "resourceType": "Organization",
        "id": "Organization/36",
        "name": "Community Health and Hospitals"
      }
    },
    {
      "resource": {
        "resourceType": "Condition",
        "id": "Condition/37",
        "patient": {
          "reference": "Patient/1"
        },
        "category": {
          "coding": [
            {
              "system": "http://snomed.info/sct",
              "code": "404684003",
              "display": "Finding"
            }
          ]
        },
        "clinicalStatus": "completed",
        "onsetPeriod": {
          "start": "2007-01-03"
        },
        "code": {
          "coding": [
            {
              "system": "http://snomed.info/sct",
              "code": "233604007",
              "display": "Pneumonia"
            }
          ]
        }
      }
    },
    {
      "resource": {
        "resourceType": "Medication",
        "id": "Medication/38",
        "name": "Proventil 0.09 MG/ACTUAT inhalant solution",
        "code": {
          "coding": [
            {
              "system": "http://www.nlm.nih.gov/research/umls/rxnorm",
              "code": "573621",
              "display": "Proventil 0.09 MG/ACTUAT inhalant solution"
            }
          ]
        },
        "manufacturer": {
          "reference": "Organization/39"
        }
      }
    },
    {
      "resource": {
        "resourceType": "Organization",
        "id": "Organization/39",
        "name": "Medication Factory Inc."
      }
    },
    {
      "resource": {
        "resourceType": "Practitioner",
        "id": "Practitioner/40",
        "identifier": [
          {
            "value": "2a620155-9d11-439e-92b3-5d9815fe4de8"
          }
        ],
        "name": [
          {
            "given": [
              "Henry"
            ],
            "family": [
              "Seven"
            ]
          }
        ]
      }
    },
    {
      "resource": {
        "resourceType": "Claim",
        "id": "Claim/41",
        "patient": {
          "reference": "Patient/1"
        },
        "coverage": [
          {
            "sequence": 1,
            "coverage": {
              "reference": "Coverage/42"
            }
          }
        ],
        "identifier": [
          {
            "value": "14d4a520-7aae-11db-9fe1-0800200c9a66"
          },
          {
            "value": "2.16.840.1.113883.19"
          }
        ],
        "name": "Everyman",
        "item": [
          {}
        ]
      }
    },
    {
      "resource": {
        "resourceType": "Coverage",
        "id": "Coverage/42",
        "subscriber": {
          "reference": "Patient/1"
        },
        "identifier": [
          {
            "value": "2.16.840.1.113883.19"
          }
        ],
        "issuer": {
          "reference": "Organization/43"
        }
      }
    },
    {
      "resource": {
        "resourceType": "Organization",
        "id": "Organization/43",
        "name": "Good Health Insurance",
        "telecom": [
          {
            "use": "work",
            "system": "phone",
            "value": "(781)555-1515"
          }
        ],
        "address": [
          {
            "use": "work",
            "line": [
              "123 Insurance\n\t\t\t\t\t\t\t\t\t\t\t\tRoad"
            ],
            "city": "Blue Bell",
            "state": "MA",
            "postalCode": "02368",
            "country": "US"
          }
        ]
      }
    },
    {
      "resource": {
        "resourceType": "CarePlan",
        "id": "CarePlan/44",
        "patient": {
          "reference": "Patient/1"
        },
        "activity": [
          {
            "refrence": "ProcedureRequest/45"
          },
          {
            "refrence": "ProcedureRequest/46"
          },
          {
            "refrence": "ProcedureRequest/47"
          },
          {
            "refrence": "ProcedureRequest/48"
          }
        ]
      }
    },
    {
      "resource": {
        "resourceType": "ProcedureRequest",
        "id": "ProcedureRequest/45",
        "subject": {
          "reference": "Patient/1"
        },
        "type": {
          "coding": [
            {
              "system": "http://snomed.info/sct",
              "code": "73761001",
              "display": "Colonoscopy"
            }
          ]
        },
        "clinicalStatus": "new",
        "timingDateTime": "2012-05-12"
      }
    },
    {
      "resource": {
        "resourceType": "ProcedureRequest",
        "id": "ProcedureRequest/46",
        "subject": {
          "reference": "Patient/1"
        },
        "code": {
          "coding": [
            {
              "system": "http://snomed.info/sct",
              "code": "73761001",
              "display": "Colonoscopy"
            }
          ]
        },
        "clinicalStatus": "new",
        "timingDateTime": "2012-05-12"
      }
    },
    {
      "resource": {
        "resourceType": "ProcedureRequest",
        "id": "ProcedureRequest/47",
        "subject": {
          "reference": "Patient/1"
        },
        "code": {
          "coding": [
            {
              "system": "http://snomed.info/sct",
              "code": "73761001",
              "display": "Colonoscopy"
            }
          ]
        },
        "clinicalStatus": "new",
        "timingDateTime": "2012-05-12"
      }
    },
    {
      "resource": {
        "resourceType": "ProcedureRequest",
        "id": "ProcedureRequest/48",
        "subject": {
          "reference": "Patient/1"
        },
        "code": {
          "coding": [
            {
              "system": "http://snomed.info/sct",
              "code": "73761001",
              "display": "Colonoscopy"
            }
          ]
        },
        "clinicalStatus": "new",
        "timingDateTime": "2012-05-12"
      }
    },
    {
      "resource": {
        "resourceType": "ClinicalImpression",
        "id": "ClinicalImpression/49",
        "patient": {
          "reference": "Patient/1"
        },
        "problem": [
          {
            "reference": "Condition/50"
          },
          {
            "reference": "Condition/52"
          }
        ]
      }
    },
    {
      "resource": {
        "resourceType": "Condition",
        "id": "Condition/50",
        "patient": {
          "reference": "Patient/1"
        },
        "identifier": [
          {
            "value": "ec8a6ff8-ed4b-4f7e-82c3-e98e58b45de7"
          }
        ],
        "code": {
          "coding": [
            {
              "system": "urn:oid:2.16.840.1.113883.5.6",
              "code": "CONC",
              "display": "Concern"
            }
          ]
        },
        "clinicalStatus": "completed",
        "onsetPeriod": {
          "start": "2008-01-03",
          "end": "2008-01-03"
        },
        "stage": {
          "accessment": [
            {
              "reference": "Observation/51"
            }
          ]
        },
        "abatementPeriod": {
          "start": "2008-01-03",
          "end": "2009-02-27T13:00:00"
        },
        "onsetAge": {
          "system": "http://snomed.info/sct",
          "code": "445518008",
          "display": "Age At Onset",
          "value": "57"
        }
      }
    },
    {
      "resource": {
        "resourceType": "Observation",
        "id": "Observation/51",
        "subject": {
          "reference": "Patient/1"
        },
        "identifier": [
          {
            "value": "ab1791b0-5c71-11db-b0de-0800200c9a66"
          }
        ],
        "code": {
          "coding": [
            {
              "system": "http://snomed.info/sct",
              "code": "409586006",
              "display": "Complaint"
            }
          ]
        },
        "status": "completed",
        "appliesPeriod": {
          "start": "2008-01-03",
          "end": "2008-01-03"
        },
        "valueCodeableConcept": {
          "coding": [
            {
              "system": "http://snomed.info/sct",
              "code": "233604007",
              "display": "Pneumonia"
            }
          ]
        }
      }
    },
    {
      "resource": {
        "resourceType": "Condition",
        "id": "Condition/52",
        "patient": {
          "reference": "Patient/1"
        },
        "identifier": [
          {
            "value": "ec8a6ff8-ed4b-4f7e-82c3-e98e58b45de7"
          }
        ],
        "code": {
          "coding": [
            {
              "system": "urn:oid:2.16.840.1.113883.5.6",
              "code": "CONC",
              "display": "Concern"
            }
          ]
        },
        "clinicalStatus": "completed",
        "onsetPeriod": {
          "start": "2007-01-03",
          "end": "2007-01-03"
        },
        "stage": {
          "accessment": [
            {
              "reference": "Observation/53"
            }
          ]
        },
        "abatementPeriod": {
          "start": "2008-01-03",
          "end": "2009-02-27T13:00:00"
        },
        "onsetAge": {
          "system": "http://snomed.info/sct",
          "code": "445518008",
          "display": "Age At Onset",
          "value": "57"
        }
      }
    },
    {
      "resource": {
        "resourceType": "Observation",
        "id": "Observation/53",
        "subject": {
          "reference": "Patient/1"
        },
        "identifier": [
          {
            "value": "ab1791b0-5c71-11db-b0de-0800200c9a66"
          }
        ],
        "code": {
          "coding": [
            {
              "system": "http://snomed.info/sct",
              "code": "409586006",
              "display": "Complaint"
            }
          ]
        },
        "status": "completed",
        "appliesPeriod": {
          "start": "2007-01-03",
          "end": "2008-01-03"
        },
        "valueCodeableConcept": {
          "coding": [
            {
              "system": "http://snomed.info/sct",
              "code": "195967001",
              "display": "Asthma"
            }
          ]
        }
      }
    },
    {
      "resource": {
        "resourceType": "Procedure",
        "id": "Procedure/54",
        "patient": {
          "reference": "Patient/1"
        },
        "identifier": [
          {
            "value": "d68b7e32-7810-4f5b-9cc2-acd54b0fd85d"
          }
        ],
        "type": {
          "coding": [
            {
              "system": "http://snomed.info/sct",
              "code": "73761001",
              "display": "Colonoscopy"
            }
          ]
        },
        "status": "completed",
        "performedDateTime": "2012-05-12",
        "bodySite": [
          {
            "siteCodeableConcept": {
              "coding": [
                {
                  "system": "urn:oid:2.16.840.1.113883.3.88.12.3221.8.9",
                  "code": "appropriate_code",
                  "display": "colon"
                }
              ]
            }
          }
        ],
        "performer": [
          {
            "reference": "Practitioner/55"
          }
        ],
        "used": [
          {
            "reference": "Device/57"
          }
        ],
        "relatedItem": [
          {
            "reference": "Observation/58"
          }
        ],
        "location": [
          {
            "reference": "Location/61"
          }
        ]
      }
    },
    {
      "resource": {
        "resourceType": "Practitioner",
        "id": "Practitioner/55",
        "identifier": [
          {
            "value": "2.16.840.1.113883.19.5.9999.456"
          }
        ],
        "address": [
          {
            "line": [
              "1001 Village Avenue"
            ],
            "city": "Portland",
            "state": "OR",
            "postalCode": "99123",
            "country": "US"
          }
        ],
        "telecom": [
          {
            "use": "work",
            "value": "555-555-5000"
          }
        ],
        "managingOrganization": {
          "reference": "Organization/56"
        },
        "practitionerRole": [
          {
            "managingOrganization": {
              "reference": "Organization/56"
            }
          }
        ]
      }
    },
    {
      "resource": {
        "resourceType": "Organization",
        "id": "Organization/56",
        "name": "Community Health and Hospitals",
        "telecom": [
          {
            "use": "work",
            "value": "555-555-5000"
          }
        ],
        "address": [
          {
            "line": [
              "1001 Village\n\t\t\t\t\t\t\t\t\t\t\t\tAvenue"
            ],
            "city": "Portland",
            "state": "OR",
            "postalCode": "99123",
            "country": "US"
          }
        ]
      }
    },
    {
      "resource": {
        "resourceType": "Device",
        "id": "Device/57",
        "patient": {
          "reference": "Patient/1"
        },
        "identifier": [
          {
            "value": "742aee30-21c5-11e1-bfc2-0800200c9a66"
          }
        ],
        "type": {
          "coding": [
            {
              "system": "http://snomed.info/sct",
              "code": "90412006",
              "display": "Colonoscope"
            }
          ]
        }
      }
    },
    {
      "resource": {
        "resourceType": "Observation",
        "id": "Observation/58",
        "subject": {
          "reference": "Patient/1"
        },
        "identifier": [
          {
            "value": "2.16.840.1.113883.19"
          }
        ],
        "code": {
          "coding": [
            {
              "system": "http://snomed.info/sct",
              "code": "274025005",
              "display": "Colonic polypectomy"
            }
          ]
        },
        "status": "aborted",
        "appliesDateTime": "2011-02-03",
        "valueString": "US",
        "bodySiteCodeableConcept": {
          "coding": [
            {
              "system": "http://snomed.info/sct",
              "code": "416949008",
              "display": "Abdomen and pelvis"
            }
          ]
        },
        "performer": [
          {
            "reference": "Practitioner/59"
          }
        ]
      }
    },
    {
      "resource": {
        "resourceType": "Practitioner",
        "id": "Practitioner/59",
        "identifier": [
          {
            "value": "2.16.840.1.113883.19.5"
          }
        ],
        "address": [
          {
            "line": [
              "17 Daws Rd."
            ],
            "city": "Blue Bell",
            "state": "MA",
            "postalCode": "02368",
            "country": "US"
          }
        ],
        "telecom": [
          {
            "use": "work",
            "value": "(555)555-555-1234"
          }
        ],
        "managingOrganization": {
          "reference": "Organization/60"
        },
        "practitionerRole": [
          {
            "managingOrganization": {
              "reference": "Organization/60"
            }
          }
        ]
      }
    },
    {
      "resource": {
        "resourceType": "Organization",
        "id": "Organization/60",
        "name": "Community Health and Hospitals"
      }
    },
    {
      "resource": {
        "resourceType": "Location",
        "id": "Location/61",
        "type": {
          "coding": [
            {
              "system": "urn:oid:2.16.840.1.113883.6.259",
              "code": "1118-9",
              "display": "Gastroenterology Clinic"
            }
          ]
        },
        "address": {
          "line": [
            "17 Daws Rd."
          ],
          "city": "Blue Bell",
          "state": "MA",
          "postalCode": "02368",
          "country": "US"
        },
        "name": "Community Gastroenterology Clinic"
      }
    },
    {
      "resource": {
        "resourceType": "Observation",
        "id": "Observation/62",
        "subject": {
          "reference": "Patient/1"
        },
        "identifier": [
          {
            "value": "107c2dc0-67a5-11db-bd13-0800200c9a66"
          }
        ],
        "code": {
          "coding": [
            {
              "system": "http://loinc.org",
              "code": "30313-1",
              "display": "HGB"
            }
          ]
        },
        "status": "completed",
        "appliesDateTime": "2000-03-23T14:30:00",
        "valueQuantity": {
          "value": "13.2",
          "units": "g/dl"
        },
        "interpretation": {
          "coding": [
            {
              "system": "urn:oid:2.16.840.1.113883.5.83",
              "code": "N"
            }
          ]
        },
        "referenceRange": {
          "text": "M 13-18 g/dl; F 12-16 g/dl"
        }
      }
    },
    {
      "resource": {
        "resourceType": "Observation",
        "id": "Observation/63",
        "subject": {
          "reference": "Patient/1"
        },
        "identifier": [
          {
            "value": "107c2dc0-67a5-11db-bd13-0800200c9a66"
          }
        ],
        "code": {
          "coding": [
            {
              "system": "http://loinc.org",
              "code": "33765-9",
              "display": "WBC"
            }
          ]
        },
        "status": "completed",
        "appliesDateTime": "2000-03-23T14:30:00",
        "valueQuantity": {
          "value": "6.7",
          "units": "10+3/ul"
        },
        "interpretation": {
          "coding": [
            {
              "system": "urn:oid:2.16.840.1.113883.5.83",
              "code": "N"
            }
          ]
        },
        "referenceRange": {
          "low": {
            "value": "4.3",
            "units": "10+3/ul"
          },
          "high": {
            "value": "10.8",
            "units": "10+3/ul"
          }
        }
      }
    },
    {
      "resource": {
        "resourceType": "Observation",
        "id": "Observation/64",
        "subject": {
          "reference": "Patient/1"
        },
        "identifier": [
          {
            "value": "107c2dc0-67a5-11db-bd13-0800200c9a66"
          }
        ],
        "code": {
          "coding": [
            {
              "system": "http://loinc.org",
              "code": "26515-7",
              "display": "PLT"
            }
          ]
        },
        "status": "completed",
        "appliesDateTime": "2000-03-23T14:30:00",
        "valueQuantity": {
          "value": "123",
          "units": "10+3/ul"
        },
        "interpretation": {
          "coding": [
            {
              "system": "urn:oid:2.16.840.1.113883.5.83",
              "code": "L"
            }
          ]
        },
        "referenceRange": {
          "low": {
            "value": "150",
            "units": "10+3/ul"
          },
          "high": {
            "value": "350",
            "units": "10+3/ul"
          }
        }
      }
    },
    {
      "resource": {
        "resourceType": "Observation",
        "id": "Observation/65",
        "subject": {
          "reference": "Patient/1"
        },
        "identifier": [
          {
            "value": "2.16.840.1.113883.19"
          }
        ],
        "code": {
          "coding": [
            {
              "system": "urn:oid:2.16.840.1.113883.5.4",
              "code": "ASSERTION"
            }
          ]
        },
        "status": "completed",
        "appliesPeriod": {
          "start": "2005-05-01",
          "end": "2009-02-27T13:00:00"
        },
        "valueCodeableConcept": {
          "coding": [
            {
              "system": "http://snomed.info/sct",
              "code": "8517006",
              "display": "Former smoker"
            }
          ]
        }
      }
    },
    {
      "resource": {
        "resourceType": "Observation",
        "id": "Observation/66",
        "subject": {
          "reference": "Patient/1"
        },
        "identifier": [
          {
            "value": "9b56c25d-9104-45ee-9fa4-e0f3afaa01c1"
          }
        ],
        "code": {
          "coding": [
            {
              "system": "http://snomed.info/sct",
              "code": "229819007",
              "display": "Tobacco use and exposure"
            }
          ]
        },
        "status": "completed",
        "appliesPeriod": {
          "start": "2005-05-01",
          "end": "2009-02-27T13:00:00"
        },
        "valueString": "1 pack per day"
      }
    },
    {
      "resource": {
        "resourceType": "Observation",
        "id": "Observation/67",
        "subject": {
          "reference": "Patient/1"
        },
        "identifier": [
          {
            "value": "45efb604-7049-4a2e-ad33-d38556c9636c"
          }
        ],
        "code": {
          "coding": [
            {
              "system": "http://snomed.info/sct",
              "code": "229819007",
              "display": "Tobacco use and exposure"
            }
          ]
        },
        "status": "completed",
        "appliesPeriod": {
          "start": "2009-02-27T13:00:00"
        },
        "valueString": "None"
      }
    },
    {
      "resource": {
        "resourceType": "Observation",
        "id": "Observation/68",
        "subject": {
          "reference": "Patient/1"
        },
        "identifier": [
          {
            "value": "37f76c51-6411-4e1d-8a37-957fd49d2cef"
          }
        ],
        "code": {
          "coding": [
            {
              "system": "http://snomed.info/sct",
              "code": "160573003",
              "display": "Alcohol consumption"
            }
          ]
        },
        "status": "completed",
        "appliesPeriod": {
          "start": "2005-05-01"
        },
        "valueString": "None"
      }
    },
    {
      "resource": {
        "resourceType": "Observation",
        "id": "Observation/69",
        "subject": {
          "reference": "Patient/1"
        },
        "identifier": [
          {
            "value": "c6f88321-67ad-11db-bd13-0800200c9a66"
          }
        ],
        "code": {
          "coding": [
            {
              "system": "http://loinc.org",
              "code": "8302-2",
              "display": "Height"
            }
          ]
        },
        "status": "completed",
        "appliesDateTime": "1999-11-14",
        "valueQuantity": {
          "value": "177",
          "units": "cm"
        },
        "interpretation": {
          "coding": [
            {
              "system": "urn:oid:2.16.840.1.113883.5.83",
              "code": "N"
            }
          ]
        }
      }
    },
    {
      "resource": {
        "resourceType": "Observation",
        "id": "Observation/70",
        "subject": {
          "reference": "Patient/1"
        },
        "identifier": [
          {
            "value": "c6f88321-67ad-11db-bd13-0800200c9a66"
          }
        ],
        "code": {
          "coding": [
            {
              "system": "http://loinc.org",
              "code": "3141-9",
              "display": "Patient Body Weight - Measured"
            }
          ]
        },
        "status": "completed",
        "appliesDateTime": "1999-11-14",
        "valueQuantity": {
          "value": "86",
          "units": "kg"
        },
        "interpretation": {
          "coding": [
            {
              "system": "urn:oid:2.16.840.1.113883.5.83",
              "code": "N"
            }
          ]
        }
      }
    },
    {
      "resource": {
        "resourceType": "Observation",
        "id": "Observation/71",
        "subject": {
          "reference": "Patient/1"
        },
        "identifier": [
          {
            "value": "c6f88321-67ad-11db-bd13-0800200c9a66"
          }
        ],
        "code": {
          "coding": [
            {
              "system": "http://loinc.org",
              "code": "8480-6",
              "display": "Intravascular Systolic"
            }
          ]
        },
        "status": "completed",
        "appliesDateTime": "1999-11-14",
        "valueQuantity": {
          "value": "132",
          "units": "mm[Hg]"
        },
        "interpretation": {
          "coding": [
            {
              "system": "urn:oid:2.16.840.1.113883.5.83",
              "code": "N"
            }
          ]
        }
      }
    },
    {
      "resource": {
        "resourceType": "Observation",
        "id": "Observation/72",
        "subject": {
          "reference": "Patient/1"
        },
        "identifier": [
          {
            "value": "c6f88321-67ad-11db-bd13-0800200c9a66"
          }
        ],
        "code": {
          "coding": [
            {
              "system": "http://loinc.org",
              "code": "8462-4",
              "display": "Intravascular Diastolic"
            }
          ]
        },
        "status": "completed",
        "appliesDateTime": "1999-11-14",
        "valueQuantity": {
          "value": "80",
          "units": "mm[Hg]"
        },
        "interpretation": {
          "coding": [
            {
              "system": "urn:oid:2.16.840.1.113883.5.83",
              "code": "N"
            }
          ]
        }
      }
    },
    {
      "resource": {
        "resourceType": "Observation",
        "id": "Observation/73",
        "subject": {
          "reference": "Patient/1"
        },
        "identifier": [
          {
            "value": "c6f88321-67ad-11db-bd13-0800200c9a66"
          }
        ],
        "code": {
          "coding": [
            {
              "system": "http://loinc.org",
              "code": "8302-2",
              "display": "Height"
            }
          ]
        },
        "status": "completed",
        "appliesDateTime": "2000-04-07",
        "valueQuantity": {
          "value": "177",
          "units": "cm"
        },
        "interpretation": {
          "coding": [
            {
              "system": "urn:oid:2.16.840.1.113883.5.83",
              "code": "N"
            }
          ]
        }
      }
    },
    {
      "resource": {
        "resourceType": "Observation",
        "id": "Observation/74",
        "subject": {
          "reference": "Patient/1"
        },
        "identifier": [
          {
            "value": "c6f88321-67ad-11db-bd13-0800200c9a66"
          }
        ],
        "code": {
          "coding": [
            {
              "system": "http://loinc.org",
              "code": "3141-9",
              "display": "Patient Body Weight - Measured"
            }
          ]
        },
        "status": "completed",
        "appliesDateTime": "2000-04-07",
        "valueQuantity": {
          "value": "90",
          "units": "kg"
        },
        "interpretation": {
          "coding": [
            {
              "system": "urn:oid:2.16.840.1.113883.5.83",
              "code": "N"
            }
          ]
        }
      }
    },
    {
      "resource": {
        "resourceType": "Observation",
        "id": "Observation/75",
        "subject": {
          "reference": "Patient/1"
        },
        "identifier": [
          {
            "value": "c6f88321-67ad-11db-bd13-0800200c9a66"
          }
        ],
        "code": {
          "coding": [
            {
              "system": "http://loinc.org",
              "code": "8480-6",
              "display": "Intravascular Systolic"
            }
          ]
        },
        "status": "completed",
        "appliesDateTime": "2000-04-07",
        "valueQuantity": {
          "value": "145",
          "units": "mm[Hg]"
        },
        "interpretation": {
          "coding": [
            {
              "system": "urn:oid:2.16.840.1.113883.5.83",
              "code": "N"
            }
          ]
        }
      }
    },
    {
      "resource": {
        "resourceType": "Observation",
        "id": "Observation/76",
        "subject": {
          "reference": "Patient/1"
        },
        "identifier": [
          {
            "value": "c6f88321-67ad-11db-bd13-0800200c9a66"
          }
        ],
        "code": {
          "coding": [
            {
              "system": "http://loinc.org",
              "code": "8462-4",
              "display": "Intravascular Diastolic"
            }
          ]
        },
        "status": "completed",
        "appliesDateTime": "2000-04-07",
        "valueQuantity": {
          "value": "88",
          "units": "mm[Hg]"
        },
        "interpretation": {
          "coding": [
            {
              "system": "urn:oid:2.16.840.1.113883.5.83",
              "code": "N"
            }
          ]
        }
      }
    }
  ],
  "id": "urn:hl7ii:2.16.840.1.113883.19.5.99999.1:TT988"
}