{
  "resourceType": "Bundle",
  "entry": [
    {
      "resource": {
        "resourceType": "Composition",
        "id": "Composition/65",
        "section": [
          {
            "subject": {
              "reference": "Patient/1"
            },
            "content": {
              "reference": "Organization/2"
            }
          },
          {
            "subject": {
              "reference": "Patient/1"
            },
            "content": {
              "reference": "AllergyIntolerance/3"
            }
          },
          {
            "subject": {
              "reference": "Patient/1"
            },
            "content": {
              "reference": "AllergyIntolerance/4"
            }
          },
          {
            "subject": {
              "reference": "Patient/1"
            },
            "content": {
              "reference": "AllergyIntolerance/5"
            }
          },
          {
            "subject": {
              "reference": "Patient/1"
            },
            "content": {
              "reference": "MedicationPrescription/6"
            }
          },
          {
            "subject": {
              "reference": "Patient/1"
            },
            "content": {
              "reference": "MedicationAdministration/7"
            }
          },
          {
            "subject": {
              "reference": "Patient/1"
            },
            "content": {
              "reference": "Medication/8"
            }
          },
          {
            "subject": {
              "reference": "Patient/1"
            },
            "content": {
              "reference": "Organization/9"
            }
          },
          {
            "subject": {
              "reference": "Patient/1"
            },
            "content": {
              "reference": "Practitioner/10"
            }
          },
          {
            "subject": {
              "reference": "Patient/1"
            },
            "content": {
              "reference": "Organization/11"
            }
          },
          {
            "subject": {
              "reference": "Patient/1"
            },
            "content": {
              "reference": "Condition/12"
            }
          },
          {
            "subject": {
              "reference": "Patient/1"
            },
            "content": {
              "reference": "Practitioner/13"
            }
          },
          {
            "subject": {
              "reference": "Patient/1"
            },
            "content": {
              "reference": "ClinicalImpression/14"
            }
          },
          {
            "subject": {
              "reference": "Patient/1"
            },
            "content": {
              "reference": "Condition/15"
            }
          },
          {
            "subject": {
              "reference": "Patient/1"
            },
            "content": {
              "reference": "Observation/16"
            }
          },
          {
            "subject": {
              "reference": "Patient/1"
            },
            "content": {
              "reference": "Procedure/17"
            }
          },
          {
            "subject": {
              "reference": "Patient/1"
            },
            "content": {
              "reference": "Practitioner/18"
            }
          },
          {
            "subject": {
              "reference": "Patient/1"
            },
            "content": {
              "reference": "Organization/19"
            }
          },
          {
            "subject": {
              "reference": "Patient/1"
            },
            "content": {
              "reference": "Device/20"
            }
          },
          {
            "subject": {
              "reference": "Patient/1"
            },
            "content": {
              "reference": "Observation/21"
            }
          },
          {
            "subject": {
              "reference": "Patient/1"
            },
            "content": {
              "reference": "Practitioner/22"
            }
          },
          {
            "subject": {
              "reference": "Patient/1"
            },
            "content": {
              "reference": "Organization/23"
            }
          },
          {
            "subject": {
              "reference": "Patient/1"
            },
            "content": {
              "reference": "Location/24"
            }
          },
          {
            "subject": {
              "reference": "Patient/1"
            },
            "content": {
              "reference": "Observation/25"
            }
          },
          {
            "subject": {
              "reference": "Patient/1"
            },
            "content": {
              "reference": "Observation/26"
            }
          },
          {
            "subject": {
              "reference": "Patient/1"
            },
            "content": {
              "reference": "Observation/27"
            }
          },
          {
            "subject": {
              "reference": "Patient/1"
            },
            "content": {
              "reference": "Encounter/28"
            }
          },
          {
            "subject": {
              "reference": "Patient/1"
            },
            "content": {
              "reference": "Practitioner/29"
            }
          },
          {
            "subject": {
              "reference": "Patient/1"
            },
            "content": {
              "reference": "Location/30"
            }
          },
          {
            "subject": {
              "reference": "Patient/1"
            },
            "content": {
              "reference": "FamilyMemberHistory/31"
            }
          },
          {
            "subject": {
              "reference": "Patient/1"
            },
            "content": {
              "reference": "Immunization/32"
            }
          },
          {
            "subject": {
              "reference": "Patient/1"
            },
            "content": {
              "reference": "Immunization/33"
            }
          },
          {
            "subject": {
              "reference": "Patient/1"
            },
            "content": {
              "reference": "Immunization/34"
            }
          },
          {
            "subject": {
              "reference": "Patient/1"
            },
            "content": {
              "reference": "Immunization/35"
            }
          },
          {
            "subject": {
              "reference": "Patient/1"
            },
            "content": {
              "reference": "Device/36"
            }
          },
          {
            "subject": {
              "reference": "Patient/1"
            },
            "content": {
              "reference": "Device/37"
            }
          },
          {
            "subject": {
              "reference": "Patient/1"
            },
            "content": {
              "reference": "Device/38"
            }
          },
          {
            "subject": {
              "reference": "Patient/1"
            },
            "content": {
              "reference": "Claim/39"
            }
          },
          {
            "subject": {
              "reference": "Patient/1"
            },
            "content": {
              "reference": "CarePlan/40"
            }
          },
          {
            "subject": {
              "reference": "Patient/1"
            },
            "content": {
              "reference": "ProcedureRequest/41"
            }
          },
          {
            "subject": {
              "reference": "Patient/1"
            },
            "content": {
              "reference": "ProcedureRequest/42"
            }
          },
          {
            "subject": {
              "reference": "Patient/1"
            },
            "content": {
              "reference": "ProcedureRequest/43"
            }
          },
          {
            "subject": {
              "reference": "Patient/1"
            },
            "content": {
              "reference": "ProcedureRequest/44"
            }
          },
          {
            "subject": {
              "reference": "Patient/1"
            },
            "content": {
              "reference": "Observation/45"
            }
          },
          {
            "subject": {
              "reference": "Patient/1"
            },
            "content": {
              "reference": "Observation/46"
            }
          },
          {
            "subject": {
              "reference": "Patient/1"
            },
            "content": {
              "reference": "Observation/47"
            }
          },
          {
            "subject": {
              "reference": "Patient/1"
            },
            "content": {
              "reference": "Observation/48"
            }
          },
          {
            "subject": {
              "reference": "Patient/1"
            },
            "content": {
              "reference": "Observation/49"
            }
          },
          {
            "subject": {
              "reference": "Patient/1"
            },
            "content": {
              "reference": "Observation/50"
            }
          },
          {
            "subject": {
              "reference": "Patient/1"
            },
            "content": {
              "reference": "Observation/51"
            }
          },
          {
            "subject": {
              "reference": "Patient/1"
            },
            "content": {
              "reference": "Observation/52"
            }
          },
          {
            "subject": {
              "reference": "Patient/1"
            },
            "content": {
              "reference": "Observation/53"
            }
          }
        ],
        "type": {
          "coding": [
            {
              "system": "http://loinc.org",
              "code": "34133-9",
              "display": "Summarization of Episode Note"
            },
            {
              "system": "LOINC",
              "code": "34133-9"
            }
          ]
        },
        "title": "Good Health Health Summary"
      }
    },
    {
      "resource": {
        "resourceType": "Patient",
        "id": "Patient/1",
        "identifier": [
          {
            "system": "urn:oid:2.16.840.1.113883.19",
            "value": "12345"
          },
          {
            "system": "urn:oid:2.16.840.1.113883.4.1",
            "value": "111-00-1234"
          }
        ],
        "address": [
          {
            "use": "home",
            "line": [
              "17 Daws Rd."
            ],
            "city": "Blue Bell",
            "state": "MA",
            "postalCode": "02368",
            "country": "US"
          }
        ],
        "telecom": [
          {
            "use": "home",
            "system": "phone",
            "value": "(781)555-1212"
          }
        ],
        "name": [
          {
            "use": "usual",
            "given": [
              "Adam",
              "Frankie"
            ],
            "family": [
              "Everyman"
            ]
          }
        ],
        "gender": "male",
        "birthDate": "1954-11-25",
        "maritalStatus": {
          "coding": [
            {
              "system": "urn:oid:2.16.840.1.113883.5.2",
              "code": "M",
              "display": "Married"
            }
          ]
        },
        "extension": [
          {
            "url": "http://hl7.org/fhir/StructureDefinition/us-core-religion",
            "valueCodeableConcept": {
              "coding": [
                {
                  "system": "urn:oid:2.16.840.1.113883.1.11.19185",
                  "code": "1013",
                  "display": "Christian (non-Catholic, non-specific)"
                }
              ]
            }
          },
          {
            "url": "http://hl7.org/fhir/Profile/us-core#race",
            "valueCodeableConcept": {
              "coding": [
                {
                  "system": "urn:oid:2.16.840.1.113883.6.238",
                  "code": "2106-3",
                  "display": "White"
                }
              ]
            }
          },
          {
            "url": "http://hl7.org/fhir/Profile/us-core#ethnicity",
            "valueCodeableConcept": {
              "coding": [
                {
                  "system": "urn:oid:2.16.840.1.113883.6.238",
                  "code": "2186-5",
                  "display": "Not Hispanic or Latino"
                }
              ]
            }
          },
          {
            "url": "http://hl7.org/fhir/StructureDefinition/birthPlace",
            "valueAddress": {
              "state": "MA",
              "postalCode": "02368",
              "country": "USA"
            }
          }
        ],
        "contact": [
          {
            "relationship": [
              {
                "coding": [
                  {
                    "system": "urn:oid:2.16.840.1.113883.5.111",
                    "code": "GRFTH",
                    "display": "Grandfather"
                  }
                ]
              }
            ],
            "address": {
              "line": [
                "17 Daws Rd."
              ],
              "city": "Blue Bell",
              "state": "MA",
              "postalCode": "02368",
              "country": "US"
            },
            "telecom": [
              {
                "use": "home",
                "system": "phone",
                "value": "(781)555-1212"
              }
            ],
            "name": [
              {
                "given": [
                  "Ralph"
                ],
                "family": [
                  "Relative"
                ]
              }
            ]
          }
        ],
        "communication": [
          {
            "language": {
              "coding": [
                {
                  "code": "fr-CN"
                }
              ]
            },
            "preferred": "true"
          }
        ],
        "managingOrganization": {
          "reference": "Organization/2"
        }
      }
    },
    {
      "resource": {
        "resourceType": "Organization",
        "id": "Organization/2",
        "name": "Good Health Clinic",
        "telecom": [
          {
            "use": "work",
            "system": "phone",
            "value": "(781)555-1212"
          }
        ],
        "address": [
          {
            "line": [
              "21 North Ave"
            ],
            "city": "Burlington",
            "state": "MA",
            "postalCode": "02368",
            "country": "USA"
          }
        ]
      }
    },
    {
      "resource": {
        "resourceType": "AllergyIntolerance",
        "id": "AllergyIntolerance/3",
        "patient": {
          "reference": "Patient/1"
        },
        "status": "Active",
        "lastOccurence": "2009-09-09",
        "event": [
          {
            "onset": "2011-02-15",
            "manifestation": [
              {
                "coding": [
                  {
                    "system": "http://snomed.info/sct",
                    "code": "282100009",
                    "display": "Adverse reaction to substance"
                  }
                ]
              },
              {
                "coding": [
                  {
                    "system": "http://snomed.info/sct",
                    "code": "247472004",
                    "display": "Hives"
                  }
                ]
              }
            ],
            "severity": "Moderate to severe"
          }
        ],
        "substance": [
          {
            "coding": [
              {
                "system": "http://www.nlm.nih.gov/research/umls/rxnorm",
                "code": "314422",
                "display": "ALLERGENIC EXTRACT, PENICILLIN"
              }
            ]
          }
        ],
        "name": "Penicillin"
      }
    },
    {
      "resource": {
        "resourceType": "AllergyIntolerance",
        "id": "AllergyIntolerance/4",
        "patient": {
          "reference": "Patient/1"
        },
        "status": "Active",
        "lastOccurence": "2009-09-09",
        "event": [
          {
            "onset": "2011-02-15",
            "manifestation": [
              {
                "coding": [
                  {
                    "system": "http://snomed.info/sct",
                    "code": "282100009",
                    "display": "Adverse reaction to substance"
                  }
                ]
              },
              {
                "coding": [
                  {
                    "system": "http://snomed.info/sct",
                    "code": "56018004",
                    "display": "Wheezing"
                  }
                ]
              }
            ],
            "severity": "Moderate to severe"
          }
        ],
        "substance": [
          {
            "coding": [
              {
                "system": "http://hl7.org/fhir/ndfrt",
                "code": "R16CO5Y76E",
                "display": "ASPIRIN"
              }
            ]
          }
        ],
        "name": "Aspirin"
      }
    },
    {
      "resource": {
        "resourceType": "AllergyIntolerance",
        "id": "AllergyIntolerance/5",
        "patient": {
          "reference": "Patient/1"
        },
        "status": "Active",
        "lastOccurence": "2009-09-09",
        "event": [
          {
            "onset": "2011-02-15",
            "manifestation": [
              {
                "coding": [
                  {
                    "system": "http://snomed.info/sct",
                    "code": "282100009",
                    "display": "Adverse reaction to substance"
                  }
                ]
              },
              {
                "coding": [
                  {
                    "system": "http://snomed.info/sct",
                    "code": "73879007",
                    "display": "Nausea"
                  }
                ]
              }
            ],
            "severity": "Moderate to severe"
          }
        ],
        "substance": [
          {
            "coding": [
              {
                "system": "http://hl7.org/fhir/ndfrt",
                "code": "Q830PW7520",
                "display": "Codeine"
              }
            ]
          }
        ],
        "name": "Aspirin"
      }
    },
    {
      "resource": {
        "resourceType": "MedicationPrescription",
        "id": "MedicationPrescription/6",
        "patient": {
          "reference": "Patient/1"
        },
        "dosageInstruction": [
          {
            "scheduledTiming": {
              "repeat": {
                "period": "6",
                "periodUnits": "h"
              }
            }
          }
        ],
        "reasonReference": {
          "reference": "Condition/12"
        },
        "status": "completed",
        "dispense": {
          "validityPeriod": {
            "start": "2002-01-01"
          },
          "numberOfRepeatsAllowed": 1,
          "quantity": {
            "value": 75
          }
        },
        "prescriber": {
          "reference": "Practitioner/13"
        }
      }
    },
    {
      "resource": {
        "resourceType": "MedicationAdministration",
        "id": "MedicationAdministration/7",
        "patient": {
          "reference": "Patient/1"
        },
        "prescription": {
          "reference": "MedicationPrescription/6"
        },
        "dosage": [
          {
            "route": {
              "coding": [
                {
                  "system": "urn:oid:2.16.840.1.113883.3.26.1.1",
                  "code": "C38216",
                  "display": "RESPIRATORY (INHALATION)"
                }
              ]
            },
            "quantity": {
              "value": 1
            },
            "rate": {
              "numerator": {
                "value": 90,
                "units": "ml/min"
              }
            },
            "method": {
              "coding": [
                {
                  "system": "urn:oid:2.16.840.1.113883.3.26.1.1",
                  "code": "C42944",
                  "display": "INHALANT"
                }
              ]
            }
          }
        ],
        "status": "completed",
        "effectiveTimePeriod": {
          "start": "2011-03-01",
          "end": "2012-03-01"
        },
        "medication": {
          "reference": "Medication/8"
        },
        "practitioner": {
          "reference": "Practitioner/10"
        }
      }
    },
    {
      "resource": {
        "resourceType": "Medication",
        "id": "Medication/8",
        "name": "Albuterol 0.09 MG/ACTUAT inhalant solution",
        "code": {
          "coding": [
            {
              "system": "http://www.nlm.nih.gov/research/umls/rxnorm",
              "code": "329498",
              "display": "Albuterol 0.09 MG/ACTUAT inhalant solution"
            }
          ]
        },
        "manufacturer": {
          "reference": "Organization/9"
        }
      }
    },
    {
      "resource": {
        "resourceType": "Organization",
        "id": "Organization/9"
      }
    },
    {
      "resource": {
        "resourceType": "Practitioner",
        "id": "Practitioner/10",
        "managingOrganization": {
          "reference": "Organization/11"
        },
        "practitionerRole": [
          {
            "managingOrganization": {
              "reference": "Organization/11"
            }
          }
        ]
      }
    },
    {
      "resource": {
        "resourceType": "Organization",
        "id": "Organization/11",
        "name": "Good Health Clinic"
      }
    },
    {
      "resource": {
        "resourceType": "Condition",
        "id": "Condition/12",
        "patient": {
          "reference": "Patient/1"
        },
        "category": {
          "coding": [
            {
              "system": "http://snomed.info/sct",
              "code": "404684003",
              "display": "Finding"
            }
          ]
        },
        "clinicalStatus": "completed"
      }
    },
    {
      "resource": {
        "resourceType": "Practitioner",
        "id": "Practitioner/13",
        "name": [
          {
            "given": [
              "Robert"
            ],
            "family": [
              "Michaels"
            ]
          }
        ]
      }
    },
    {
      "resource": {
        "resourceType": "ClinicalImpression",
        "id": "ClinicalImpression/14",
        "patient": {
          "reference": "Patient/1"
        },
        "problem": [
          {
            "reference": "Condition/15"
          }
        ]
      }
    },
    {
      "resource": {
        "resourceType": "Condition",
        "id": "Condition/15",
        "patient": {
          "reference": "Patient/1"
        },
        "identifier": [
          {
            "value": "ec8a6ff8-ed4b-4f7e-82c3-e98e58b45de7"
          }
        ],
        "code": {
          "coding": [
            {}
          ]
        },
        "clinicalStatus": "completed",
        "onsetPeriod": {
          "start": "1998-03",
          "end": "2011-01-03"
        },
        "stage": {
          "assessment": [
            {
              "reference": "Observation/16"
            }
          ]
        },
        "onsetAge": {
          "value": 57,
          "units": "a",
          "system": "http://snomed.info/sct",
          "code": "397659008"
        }
      }
    },
    {
      "resource": {
        "resourceType": "Observation",
        "id": "Observation/16",
        "subject": {
          "reference": "Patient/1"
        },
        "identifier": [
          {
            "value": "ab1791b0-5c71-11db-b0de-0800200c9a66"
          }
        ],
        "code": {
          "coding": [
            {
              "system": "http://snomed.info/sct",
              "code": "409586006",
              "display": "Complaint"
            }
          ]
        },
        "status": "completed",
        "appliesPeriod": {
          "start": "1998-03"
        },
        "valueCodeableConcept": {
          "coding": [
            {
              "system": "http://snomed.info/sct",
              "code": "233604007",
              "display": "Pneumonia"
            }
          ]
        }
      }
    },
    {
      "resource": {
        "resourceType": "Procedure",
        "id": "Procedure/17",
        "patient": {
          "reference": "Patient/1"
        },
        "identifier": [
          {
            "value": "d68b7e32-7810-4f5b-9cc2-acd54b0fd85d"
          }
        ],
        "type": {
          "coding": [
            {
              "system": "http://snomed.info/sct",
              "code": "274025005",
              "display": "Colonic polypectomy"
            }
          ]
        },
        "status": "completed",
        "performedDateTime": "2011-02-15",
        "performer": [
          {
            "person": {
              "reference": "Practitioner/18"
            }
          }
        ],
        "used": [
          {
            "reference": "Device/20"
          }
        ],
        "relatedItem": [
          {
            "target": {
              "reference": "Observation/21"
            }
          }
        ],
        "location": {
          "reference": "Location/24"
        }
      }
    },
    {
      "resource": {
        "resourceType": "Practitioner",
        "id": "Practitioner/18",
        "identifier": [
          {
            "value": "c2ee9ee9-ae31-4628-a919-fec1cbb58687"
          }
        ],
        "address": [
          {
            "line": [
              "17 Daws Rd."
            ],
            "city": "Blue Bell",
            "state": "MA",
            "postalCode": "02368",
            "country": "US"
          }
        ],
        "telecom": [
          {
            "use": "work",
            "value": "(555)555-555-1234"
          }
        ],
        "managingOrganization": {
          "reference": "Organization/19"
        },
        "practitionerRole": [
          {
            "managingOrganization": {
              "reference": "Organization/19"
            }
          }
        ]
      }
    },
    {
      "resource": {
        "resourceType": "Organization",
        "id": "Organization/19",
        "name": "Good Health Clinic",
        "telecom": [
          {
            "use": "work",
            "value": "(555)555-555-1234"
          }
        ],
        "address": [
          {
            "line": [
              "17 Daws Rd."
            ],
            "city": "Blue Bell",
            "state": "MA",
            "postalCode": "02368",
            "country": "US"
          }
        ]
      }
    },
    {
      "resource": {
        "resourceType": "Device",
        "id": "Device/20",
        "patient": {
          "reference": "Patient/1"
        },
        "identifier": [
          {
            "value": "eb936010-7b17-11db-9fe1-0800200c9a68"
          }
        ],
        "type": {
          "coding": [
            {
              "system": "http://snomed.info/sct",
              "code": "90412006",
              "display": "Colonoscope"
            }
          ]
        }
      }
    },
    {
      "resource": {
        "resourceType": "Observation",
        "id": "Observation/21",
        "subject": {
          "reference": "Patient/1"
        },
        "identifier": [
          {
            "value": "2.16.840.1.113883.19"
          }
        ],
        "code": {
          "coding": [
            {
              "system": "http://snomed.info/sct",
              "code": "274025005",
              "display": "Colonic polypectomy"
            }
          ]
        },
        "status": "aborted",
        "appliesDateTime": "2011-02-03",
        "valueString": "US",
        "bodySiteCodeableConcept": {
          "coding": [
            {
              "system": "http://snomed.info/sct",
              "code": "416949008",
              "display": "Abdomen and pelvis"
            }
          ]
        },
        "performer": [
          {
            "reference": "Practitioner/22"
          }
        ]
      }
    },
    {
      "resource": {
        "resourceType": "Practitioner",
        "id": "Practitioner/22",
        "identifier": [
          {
            "value": "2.16.840.1.113883.19.5"
          }
        ],
        "address": [
          {
            "line": [
              "17 Daws Rd."
            ],
            "city": "Blue Bell",
            "state": "MA",
            "postalCode": "02368",
            "country": "US"
          }
        ],
        "telecom": [
          {
            "use": "work",
            "value": "(555)555-555-1234"
          }
        ],
        "managingOrganization": {
          "reference": "Organization/23"
        },
        "practitionerRole": [
          {
            "managingOrganization": {
              "reference": "Organization/23"
            }
          }
        ]
      }
    },
    {
      "resource": {
        "resourceType": "Organization",
        "id": "Organization/23",
        "name": "Good Health Clinic"
      }
    },
    {
      "resource": {
        "resourceType": "Location",
        "id": "Location/24",
        "type": {
          "coding": [
            {
              "system": "urn:oid:2.16.840.1.113883.5.111",
              "code": "GACH",
              "display": "General Acute Care Hospital"
            }
          ]
        },
        "address": {
          "line": [
            "17 Daws Rd."
          ],
          "city": "Blue Bell",
          "state": "MA",
          "postalCode": "02368",
          "country": "US"
        },
        "name": "Good Health Clinic"
      }
    },
    {
      "resource": {
        "resourceType": "Observation",
        "id": "Observation/25",
        "subject": {
          "reference": "Patient/1"
        },
        "identifier": [
          {
            "value": "107c2dc0-67a5-11db-bd13-0800200c9a66"
          }
        ],
        "code": {
          "coding": [
            {
              "system": "http://loinc.org",
              "code": "30313-1",
              "display": "HGB"
            }
          ]
        },
        "status": "completed",
        "appliesDateTime": "2000-03-23T14:30:00",
        "valueQuantity": {
          "value": "13.2",
          "units": "g/dl"
        },
        "interpretation": {
          "coding": [
            {
              "system": "urn:oid:2.16.840.1.113883.5.83",
              "code": "N"
            }
          ]
        },
        "bodySiteCodeableConcept": {
          "coding": [
            {}
          ]
        },
        "referenceRange": {
          "text": "M 13-18 g/dl; F 12-16 g/dl"
        }
      }
    },
    {
      "resource": {
        "resourceType": "Observation",
        "id": "Observation/26",
        "subject": {
          "reference": "Patient/1"
        },
        "identifier": [
          {
            "value": "107c2dc0-67a5-11db-bd13-0800200c9a66"
          }
        ],
        "code": {
          "coding": [
            {
              "system": "http://loinc.org",
              "code": "33765-9",
              "display": "WBC"
            }
          ]
        },
        "status": "completed",
        "appliesDateTime": "2000-03-23T14:30:00",
        "valueQuantity": {
          "value": "6.7",
          "units": "10+3/ul"
        },
        "interpretation": {
          "coding": [
            {
              "system": "urn:oid:2.16.840.1.113883.5.83",
              "code": "N"
            }
          ]
        },
        "bodySiteCodeableConcept": {
          "coding": [
            {}
          ]
        },
        "referenceRange": {
          "low": {
            "value": "4.3",
            "units": "10+3/ul"
          },
          "high": {
            "value": "10.8",
            "units": "10+3/ul"
          }
        }
      }
    },
    {
      "resource": {
        "resourceType": "Observation",
        "id": "Observation/27",
        "subject": {
          "reference": "Patient/1"
        },
        "identifier": [
          {
            "value": "107c2dc0-67a5-11db-bd13-0800200c9a66"
          }
        ],
        "code": {
          "coding": [
            {
              "system": "http://loinc.org",
              "code": "26515-7",
              "display": "PLT"
            }
          ]
        },
        "status": "completed",
        "appliesDateTime": "2000-03-23T14:30:00",
        "valueQuantity": {
          "value": "123",
          "units": "10+3/ul"
        },
        "interpretation": {
          "coding": [
            {
              "system": "urn:oid:2.16.840.1.113883.5.83",
              "code": "L"
            }
          ]
        },
        "bodySiteCodeableConcept": {
          "coding": [
            {}
          ]
        },
        "referenceRange": {
          "low": {
            "value": "150",
            "units": "10+3/ul"
          },
          "high": {
            "value": "350",
            "units": "10+3/ul"
          }
        }
      }
    },
    {
      "resource": {
        "resourceType": "Encounter",
        "id": "Encounter/28",
        "patient": {
          "reference": "Patient/1"
        },
        "identifier": [
          {
            "value": "2a620155-9d11-439e-92b3-5d9815ff4de8"
          }
        ],
        "type": {
          "coding": [
            {
              "system": "http://www.ama-assn.org/go/cpt",
              "code": "99241",
              "display": "Office consultation - 15 minutes"
            },
            {
              "system": "urn:oid:2.16.840.1.113883.5.4",
              "code": "AMB",
              "display": "Ambulatory"
            }
          ]
        },
        "period": {
          "start": "2000-04-07",
          "end": "2000-04-07"
        },
        "participant": [
          {
            "type": {
              "coding": [
                {
                  "system": "http://hl7.org/fhir/v3/ParticipationType",
                  "code": "ATND",
                  "display": "attender"
                }
              ]
            },
            "individual": {
              "reference": "Practitioner/29"
            }
          }
        ],
        "location": [
          {
            "location": {
              "reference": "Location/30"
            }
          }
        ]
      }
    },
    {
      "resource": {
        "resourceType": "Practitioner",
        "id": "Practitioner/29",
        "practitionerRole": [
          {
            "specialty": {
              "coding": [
                {
                  "system": "http://snomed.info/sct",
                  "code": "59058001",
                  "display": "General Physician"
                }
              ]
            }
          }
        ]
      }
    },
    {
      "resource": {
        "resourceType": "Location",
        "id": "Location/30",
        "type": {
          "coding": [
            {
              "system": "urn:oid:2.16.840.1.113883.5.111",
              "code": "GACH",
              "display": "General Acute Care Hospital"
            }
          ]
        },
        "address": {
          "line": [
            "17 Daws Rd."
          ],
          "city": "Blue Bell",
          "state": "MA",
          "postalCode": "02368",
          "country": "US"
        },
        "name": "Good Health Clinic"
      }
    },
    {
      "resource": {
        "resourceType": "FamilyMemberHistory",
        "id": "FamilyMemberHistory/31",
        "patient": {
          "reference": "Patient/1"
        },
        "relationship": {
          "coding": [
            {
              "system": "urn:oid:2.16.840.1.113883.5.111",
              "code": "FTH",
              "display": "Father"
            }
          ]
        },
        "condition": [
          {
            "type": {
              "coding": [
                {
                  "system": "http://snomed.info/sct",
                  "code": "22298006",
                  "display": "Myocardial infarction"
                }
              ]
            },
            "outcome": {
              "system": "http://snomed.info/sct",
              "code": "419099009",
              "display": "Dead"
            },
            "onsetAge": {
              "value": 57,
              "units": "a",
              "system": "http://snomed.info/sct",
              "code": "397659008"
            }
          },
          {
            "type": {
              "coding": [
                {
                  "system": "http://snomed.info/sct",
                  "code": "46635009",
                  "display": "Diabetes mellitus type 1"
                }
              ]
            },
            "onsetAge": {
              "value": 40,
              "units": "a",
              "system": "http://snomed.info/sct",
              "code": "397659008"
            }
          }
        ]
      }
    },
    {
      "resource": {
        "resourceType": "Immunization",
        "id": "Immunization/32",
        "patient": {
          "reference": "Patient/1"
        },
        "date": "1999-11",
        "route": {
          "coding": [
            {
              "system": "urn:oid:2.16.840.1.113883.5.112",
              "code": "IM",
              "display": "Intramuscular injection"
            }
          ]
        },
        "doseQuantity": {
          "value": null
        },
        "vaccineType": {
          "coding": [
            {
              "system": "urn:oid:2.16.840.1.113883.6.59",
              "code": "88",
              "display": "Influenza virus vaccine"
            }
          ]
        }
      }
    },
    {
      "resource": {
        "resourceType": "Immunization",
        "id": "Immunization/33",
        "patient": {
          "reference": "Patient/1"
        },
        "date": "1998-12-15",
        "route": {
          "coding": [
            {
              "system": "urn:oid:2.16.840.1.113883.5.112",
              "code": "IM",
              "display": "Intramuscular injection"
            }
          ]
        },
        "doseQuantity": {
          "value": null
        },
        "vaccineType": {
          "coding": [
            {
              "system": "urn:oid:2.16.840.1.113883.6.59",
              "code": "88",
              "display": "Influenza virus vaccine"
            }
          ]
        }
      }
    },
    {
      "resource": {
        "resourceType": "Immunization",
        "id": "Immunization/34",
        "patient": {
          "reference": "Patient/1"
        },
        "date": "1998-12-15",
        "route": {
          "coding": [
            {
              "system": "urn:oid:2.16.840.1.113883.5.112",
              "code": "IM",
              "display": "Intramuscular injection"
            }
          ]
        },
        "doseQuantity": {
          "value": null
        },
        "vaccineType": {
          "coding": [
            {
              "system": "urn:oid:2.16.840.1.113883.6.59",
              "code": "33",
              "display": "Pneumococcal polysaccharide vaccine"
            }
          ]
        }
      }
    },
    {
      "resource": {
        "resourceType": "Immunization",
        "id": "Immunization/35",
        "patient": {
          "reference": "Patient/1"
        },
        "date": "1998-12-15",
        "route": {
          "coding": [
            {
              "system": "urn:oid:2.16.840.1.113883.5.112",
              "code": "IM",
              "display": "Intramuscular injection"
            }
          ]
        },
        "doseQuantity": {
          "value": null
        },
        "vaccineType": {
          "coding": [
            {
              "system": "urn:oid:2.16.840.1.113883.6.59",
              "code": "103",
              "display": "Tetanus and diphtheria toxoids - preservative free"
            }
          ]
        },
        "explanation": {
          "resonNotGiven": [
            {
              "coding": [
                {
                  "system": "urn:oid:2.16.840.1.113883.11.19725",
                  "code": "PATOBJ",
                  "display": "Patient Objection"
                }
              ]
            }
          ]
        }
      }
    },
    {
      "resource": {
        "resourceType": "Device",
        "id": "Device/36",
        "patient": {
          "reference": "Patient/1"
        },
        "status": "available",
        "type": {
          "coding": [
            {
              "system": "http://snomed.info/sct",
              "code": "72506001",
              "display": "Automatic implantable cardioverter/defibrillator"
            }
          ]
        }
      }
    },
    {
      "resource": {
        "resourceType": "Device",
        "id": "Device/37",
        "patient": {
          "reference": "Patient/1"
        },
        "status": "available",
        "identifier": [
          {
            "value": "03ca01b0-7be1-11db-9fe1-0800200c9a66"
          }
        ],
        "type": {
          "coding": [
            {
              "system": "http://snomed.info/sct",
              "code": "304120007",
              "display": "Total hip replacement prosthesis"
            }
          ]
        }
      }
    },
    {
      "resource": {
        "resourceType": "Device",
        "id": "Device/38",
        "patient": {
          "reference": "Patient/1"
        },
        "status": "available",
        "type": {
          "coding": [
            {
              "system": "http://snomed.info/sct",
              "code": "58938008",
              "display": "Wheelchair"
            }
          ]
        }
      }
    },
    {
      "resource": {
        "resourceType": "Claim",
        "id": "Claim/39",
        "patient": {
          "reference": "Patient/1"
        }
      }
    },
    {
      "resource": {
        "resourceType": "CarePlan",
        "id": "CarePlan/40",
        "patient": {
          "reference": "Patient/1"
        },
        "activity": [
          {
            "reference": {
              "reference": "ProcedureRequest/41"
            }
          },
          {
            "reference": {
              "reference": "ProcedureRequest/42"
            }
          },
          {
            "reference": {
              "reference": "ProcedureRequest/43"
            }
          },
          {
            "reference": {
              "reference": "ProcedureRequest/44"
            }
          }
        ]
      }
    },
    {
      "resource": {
        "resourceType": "ProcedureRequest",
        "id": "ProcedureRequest/41",
        "subject": {
          "reference": "Patient/1"
        },
        "type": {
          "coding": [
            {
              "system": "http://snomed.info/sct",
              "code": "310634005",
              "display": "Colonoscopy"
            }
          ]
        },
        "status": "new",
        "timingDateTime": "2000-04-21"
      }
    },
    {
      "resource": {
        "resourceType": "ProcedureRequest",
        "id": "ProcedureRequest/42",
        "subject": {
          "reference": "Patient/1"
        },
        "code": {
          "coding": [
            {
              "system": "http://snomed.info/sct",
              "code": "310634005",
              "display": "Colonoscopy"
            }
          ]
        },
        "status": "new",
        "timingDateTime": "2000-04-21"
      }
    },
    {
      "resource": {
        "resourceType": "ProcedureRequest",
        "id": "ProcedureRequest/43",
        "subject": {
          "reference": "Patient/1"
        }
      }
    },
    {
      "resource": {
        "resourceType": "ProcedureRequest",
        "id": "ProcedureRequest/44",
        "subject": {
          "reference": "Patient/1"
        },
        "code": {
          "coding": [
            {
              "system": "http://snomed.info/sct",
              "code": "310634005",
              "display": "Colonoscopy"
            }
          ]
        },
        "status": "new",
        "timingDateTime": "2000-04-21"
      }
    },
    {
      "resource": {
        "resourceType": "Observation",
        "id": "Observation/45",
        "subject": {
          "reference": "Patient/1"
        },
        "identifier": [
          {
            "value": "9b56c25d-9104-45ee-9fa4-e0f3afaa01c1"
          }
        ],
        "code": {
          "coding": [
            {
              "system": "http://snomed.info/sct",
              "code": "230056004",
              "display": "Cigarette smoking"
            }
          ]
        },
        "status": "completed",
        "appliesPeriod": {
          "start": "1947",
          "end": "1972"
        },
        "valueString": "1 pack per day"
      }
    },
    {
      "resource": {
        "resourceType": "Observation",
        "id": "Observation/46",
        "subject": {
          "reference": "Patient/1"
        },
        "identifier": [
          {
            "value": "45efb604-7049-4a2e-ad33-d38556c9636c"
          }
        ],
        "code": {
          "coding": [
            {
              "system": "http://snomed.info/sct",
              "code": "230056004",
              "display": "Cigarette smoking"
            }
          ]
        },
        "status": "completed",
        "appliesPeriod": {
          "start": "1973"
        },
        "valueString": "None"
      }
    },
    {
      "resource": {
        "resourceType": "Observation",
        "id": "Observation/47",
        "subject": {
          "reference": "Patient/1"
        },
        "identifier": [
          {
            "value": "37f76c51-6411-4e1d-8a37-957fd49d2cef"
          }
        ],
        "code": {
          "coding": [
            {
              "system": "http://snomed.info/sct",
              "code": "160573003",
              "display": "Alcohol consumption"
            }
          ]
        },
        "status": "completed",
        "appliesPeriod": {
          "start": "1973"
        },
        "valueString": "None"
      }
    },
    {
      "resource": {
        "resourceType": "Observation",
        "id": "Observation/48",
        "subject": {
          "reference": "Patient/1"
        },
        "identifier": [
          {
            "value": "c6f88321-67ad-11db-bd13-0800200c9a66"
          }
        ],
        "code": {
          "coding": [
            {
              "system": "http://loinc.org",
              "code": "8302-2",
              "display": "Height"
            }
          ]
        },
        "status": "completed",
        "appliesDateTime": "1999-11-14",
        "valueQuantity": {
          "value": "177",
          "units": "cm"
        },
        "interpretation": {
          "coding": [
            {
              "system": "urn:oid:2.16.840.1.113883.5.83",
              "code": "N"
            }
          ]
        }
      }
    },
    {
      "resource": {
        "resourceType": "Observation",
        "id": "Observation/49",
        "subject": {
          "reference": "Patient/1"
        },
        "identifier": [
          {
            "value": "c6f88321-67ad-11db-bd13-0800200c9a66"
          }
        ],
        "code": {
          "coding": [
            {
              "system": "http://loinc.org",
              "code": "3141-9",
              "display": "Patient Body Weight - Measured"
            }
          ]
        },
        "status": "completed",
        "appliesDateTime": "1999-11-14",
        "valueQuantity": {
          "value": "86",
          "units": "kg"
        },
        "interpretation": {
          "coding": [
            {
              "system": "urn:oid:2.16.840.1.113883.5.83",
              "code": "N"
            }
          ]
        }
      }
    },
    {
      "resource": {
        "resourceType": "Observation",
        "id": "Observation/50",
        "subject": {
          "reference": "Patient/1"
        },
        "identifier": [
          {
            "value": "c6f88321-67ad-11db-bd13-0800200c9a66"
          }
        ],
        "code": {
          "coding": [
            {
              "system": "http://loinc.org",
              "code": "8480-6",
              "display": "Intravascular Systolic"
            }
          ]
        },
        "status": "completed",
        "appliesDateTime": "1999-11-14",
        "valueQuantity": {
          "value": "132",
          "units": "mm[Hg]"
        },
        "interpretation": {
          "coding": [
            {
              "system": "urn:oid:2.16.840.1.113883.5.83",
              "code": "N"
            }
          ]
        }
      }
    },
    {
      "resource": {
        "resourceType": "Observation",
        "id": "Observation/51",
        "subject": {
          "reference": "Patient/1"
        },
        "identifier": [
          {
            "value": "c6f88321-67ad-11db-bd13-0800200c9a66"
          }
        ],
        "code": {
          "coding": [
            {
              "system": "http://loinc.org",
              "code": "8302-2",
              "display": "Height"
            }
          ]
        },
        "status": "completed",
        "appliesDateTime": "2000-04-07",
        "valueQuantity": {
          "value": "177",
          "units": "cm"
        },
        "interpretation": {
          "coding": [
            {
              "system": "urn:oid:2.16.840.1.113883.5.83",
              "code": "N"
            }
          ]
        }
      }
    },
    {
      "resource": {
        "resourceType": "Observation",
        "id": "Observation/52",
        "subject": {
          "reference": "Patient/1"
        },
        "identifier": [
          {
            "value": "c6f88321-67ad-11db-bd13-0800200c9a66"
          }
        ],
        "code": {
          "coding": [
            {
              "system": "http://loinc.org",
              "code": "3141-9",
              "display": "Patient Body Weight - Measured"
            }
          ]
        },
        "status": "completed",
        "appliesDateTime": "2000-04-07",
        "valueQuantity": {
          "value": "88",
          "units": "kg"
        },
        "interpretation": {
          "coding": [
            {
              "system": "urn:oid:2.16.840.1.113883.5.83",
              "code": "N"
            }
          ]
        }
      }
    },
    {
      "resource": {
        "resourceType": "Observation",
        "id": "Observation/53",
        "subject": {
          "reference": "Patient/1"
        },
        "identifier": [
          {
            "value": "c6f88321-67ad-11db-bd13-0800200c9a66"
          }
        ],
        "code": {
          "coding": [
            {
              "system": "http://loinc.org",
              "code": "8480-6",
              "display": "Intravascular Systolic"
            }
          ]
        },
        "status": "completed",
        "appliesDateTime": "2000-04-07",
        "valueQuantity": {
          "value": "145",
          "units": "mm[Hg]"
        },
        "interpretation": {
          "coding": [
            {
              "system": "urn:oid:2.16.840.1.113883.5.83",
              "code": "N"
            }
          ]
        }
      }
    }
  ],
  "id": "urn:hl7ii:2.16.840.1.113883.19:999021"
}