{
  "resourceType": "Bundle",
  "entry": [
    {
      "resource": {
        "resourceType": "Composition",
        "id": "Composition/54",
        "section": [
          {
            "content": {
              "reference": "Organization/2"
            }
          },
          {
            "content": {
              "reference": "AllergyIntolerance/3"
            }
          },
          {
            "content": {
              "reference": "AllergyIntolerance/4"
            }
          },
          {
            "content": {
              "reference": "AllergyIntolerance/5"
            }
          },
          {
            "content": {
              "reference": "Encounter/6"
            }
          },
          {
            "content": {
              "reference": "Practitioner/7"
            }
          },
          {
            "content": {
              "reference": "Location/8"
            }
          },
          {
            "content": {
              "reference": "Immunization/9"
            }
          },
          {
            "content": {
              "reference": "Organization/10"
            }
          },
          {
            "content": {
              "reference": "Immunization/11"
            }
          },
          {
            "content": {
              "reference": "Organization/12"
            }
          },
          {
            "content": {
              "reference": "MedicationPrescription/13"
            }
          },
          {
            "content": {
              "reference": "MedicationAdministration/14"
            }
          },
          {
            "content": {
              "reference": "Medication/15"
            }
          },
          {
            "content": {
              "reference": "Organization/16"
            }
          },
          {
            "subject": {
              "reference": "Patient/1"
            },
            "content": {
              "reference": "Practitioner/17"
            }
          },
          {
            "content": {
              "reference": "Organization/18"
            }
          },
          {
            "content": {
              "reference": "Condition/19"
            }
          },
          {
            "content": {
              "reference": "Medication/20"
            }
          },
          {
            "content": {
              "reference": "Organization/21"
            }
          },
          {
            "content": {
              "reference": "Practitioner/22"
            }
          },
          {
            "content": {
              "reference": "CarePlan/23"
            }
          },
          {
            "content": {
              "reference": "ProcedureRequest/24"
            }
          },
          {
            "content": {
              "reference": "ProcedureRequest/25"
            }
          },
          {
            "content": {
              "reference": "ProcedureRequest/26"
            }
          },
          {
            "content": {
              "reference": "ClinicalImpression/27"
            }
          },
          {
            "content": {
              "reference": "Condition/28"
            }
          },
          {
            "content": {
              "reference": "Observation/29"
            }
          },
          {
            "content": {
              "reference": "Condition/30"
            }
          },
          {
            "content": {
              "reference": "Observation/31"
            }
          },
          {
            "content": {
              "reference": "Procedure/32"
            }
          },
          {
            "content": {
              "reference": "Practitioner/33"
            }
          },
          {
            "content": {
              "reference": "Organization/34"
            }
          },
          {
            "content": {
              "reference": "Device/35"
            }
          },
          {
            "content": {
              "reference": "Location/36"
            }
          },
          {
            "subject": {
              "reference": "Patient/1"
            },
            "content": {
              "reference": "Observation/37"
            }
          },
          {
            "subject": {
              "reference": "Patient/1"
            },
            "content": {
              "reference": "Observation/38"
            }
          },
          {
            "subject": {
              "reference": "Patient/1"
            },
            "content": {
              "reference": "Observation/39"
            }
          },
          {
            "content": {
              "reference": "Observation/40"
            }
          },
          {
            "content": {
              "reference": "Observation/41"
            }
          },
          {
            "content": {
              "reference": "Observation/42"
            }
          },
          {
            "content": {
              "reference": "Observation/43"
            }
          },
          {
            "content": {
              "reference": "Observation/44"
            }
          },
          {
            "content": {
              "reference": "Observation/45"
            }
          },
          {
            "content": {
              "reference": "Observation/46"
            }
          },
          {
            "content": {
              "reference": "Observation/47"
            }
          }
        ],
        "type": {
          "coding": [
            {
              "system": "http://loinc.org",
              "code": "34133-9",
              "display": "Summarization of Episode Note"
            },
            {
              "system": "LOINC",
              "code": "34133-9"
            }
          ]
        },
        "title": "Community Health and Hospitals: Health Summary",
        "subject": {
          "reference": "Patient/1"
        }
      }
    },
    {
      "resource": {
        "resourceType": "Patient",
        "id": "Patient/1",
        "identifier": [
          {
            "system": "urn:oid:2.16.840.1.113883.4.6",
            "value": "1"
          },
          {
            "system": "urn:oid:2.16.840.1.113883.4.1",
            "value": "123-101-5230"
          }
        ],
        "address": [
          {
            "use": "home",
            "line": [
              "1357 Amber Drive"
            ],
            "city": "Beaverton",
            "state": "OR",
            "postalCode": "97006",
            "country": "US"
          }
        ],
        "telecom": [
          {
            "use": "home",
            "system": "phone",
            "value": "(816)276-6909"
          }
        ],
        "name": [
          {
            "use": "usual",
            "given": [
              "Myra"
            ],
            "family": [
              "Jones"
            ]
          }
        ],
        "gender": "female",
        "birthDate": "1947-05-01",
        "maritalStatus": {
          "coding": [
            {
              "system": "urn:oid:2.16.840.1.113883.5.2",
              "code": "M",
              "display": "Married"
            }
          ]
        },
        "extension": [
          {
            "url": "http://hl7.org/fhir/StructureDefinition/us-core-religion",
            "valueCodeableConcept": {
              "coding": [
                {
                  "system": "urn:oid:2.16.840.1.113883.5.1076",
                  "code": "1013",
                  "display": "Christian (non-Catholic, non-specific)"
                }
              ]
            }
          },
          {
            "url": "http://hl7.org/fhir/Profile/us-core#race",
            "valueCodeableConcept": {
              "coding": [
                {
                  "system": "urn:oid:2.16.840.1.113883.6.238",
                  "code": "2106-3",
                  "display": "White"
                }
              ]
            }
          },
          {
            "url": "http://hl7.org/fhir/Profile/us-core#ethnicity",
            "valueCodeableConcept": {
              "coding": [
                {
                  "system": "urn:oid:2.16.840.1.113883.6.238",
                  "code": "2186-5",
                  "display": "Not Hispanic or Latino"
                }
              ]
            }
          },
          {
            "url": "http://hl7.org/fhir/StructureDefinition/birthPlace",
            "valueAddress": {
              "city": "Beaverton",
              "state": "OR",
              "postalCode": "97006",
              "country": "US"
            }
          }
        ],
        "contact": [
          {
            "relationship": [
              {
                "coding": [
                  {
                    "system": "urn:oid:2.16.840.1.113883.5.111",
                    "code": "GPARNT",
                    "display": "Grandfather"
                  }
                ]
              }
            ],
            "address": {
              "line": [
                "1357 Amber Drive"
              ],
              "city": "Beaverton",
              "state": "OR",
              "postalCode": "97006",
              "country": "US"
            },
            "telecom": [
              {
                "use": "home",
                "system": "phone",
                "value": "(816)276-6909"
              }
            ],
            "name": [
              {
                "given": [
                  "Ralph"
                ],
                "family": [
                  "Jones"
                ]
              }
            ]
          }
        ],
        "communication": [
          {
            "language": {
              "coding": [
                {
                  "code": "eng"
                }
              ]
            },
            "preferred": "true"
          }
        ],
        "managingOrganization": {
          "reference": "Organization/2"
        }
      }
    },
    {
      "resource": {
        "resourceType": "Organization",
        "id": "Organization/2",
        "name": "Community Health and Hospitals",
        "telecom": [
          {
            "use": "work",
            "system": "phone",
            "value": " 555-555-5000"
          }
        ],
        "address": [
          {
            "line": [
              "1002 Healthcare Dr"
            ],
            "city": "Portland",
            "state": "OR",
            "postalCode": "97266",
            "country": "US"
          }
        ]
      }
    },
    {
      "resource": {
        "resourceType": "AllergyIntolerance",
        "id": "AllergyIntolerance/3",
        "patient": {
          "reference": "Patient/1"
        },
        "status": "Inactive",
        "lastOccurence": "2007-05-01",
        "event": [
          {
            "manifestation": [
              {
                "coding": [
                  {
                    "system": "http://snomed.info/sct",
                    "code": "419511003",
                    "display": "Propensity to adverse reaction to drug"
                  }
                ]
              },
              {
                "coding": [
                  {
                    "system": "http://snomed.info/sct",
                    "code": "247472004",
                    "display": "Hives"
                  }
                ]
              }
            ],
            "severity": "Moderate to severe"
          }
        ],
        "substance": [
          {
            "coding": [
              {
                "system": "http://www.nlm.nih.gov/research/umls/rxnorm",
                "code": "7982",
                "display": "Penicillin G benzathine"
              }
            ]
          }
        ]
      }
    },
    {
      "resource": {
        "resourceType": "AllergyIntolerance",
        "id": "AllergyIntolerance/4",
        "patient": {
          "reference": "Patient/1"
        },
        "status": "Active",
        "lastOccurence": "2006-05-01",
        "event": [
          {
            "onset": "2006-05-01",
            "manifestation": [
              {
                "coding": [
                  {
                    "system": "http://snomed.info/sct",
                    "code": "419511003",
                    "display": "Propensity to adverse reaction to drug"
                  }
                ]
              },
              {
                "coding": [
                  {
                    "system": "http://snomed.info/sct",
                    "code": "267036007",
                    "display": "Shortness of Breath"
                  }
                ]
              }
            ],
            "severity": "Moderate"
          }
        ],
        "substance": [
          {
            "coding": [
              {
                "system": "http://www.nlm.nih.gov/research/umls/rxnorm",
                "code": "2670",
                "display": "Codeine"
              }
            ]
          }
        ]
      }
    },
    {
      "resource": {
        "resourceType": "AllergyIntolerance",
        "id": "AllergyIntolerance/5",
        "patient": {
          "reference": "Patient/1"
        },
        "status": "Active",
        "lastOccurence": "2008-05-01",
        "event": [
          {
            "onset": "2008-05-01",
            "manifestation": [
              {
                "coding": [
                  {
                    "system": "http://snomed.info/sct",
                    "code": "419511003",
                    "display": "Propensity to adverse reaction to drug"
                  }
                ]
              },
              {
                "coding": [
                  {
                    "system": "http://snomed.info/sct",
                    "code": "247472004",
                    "display": "Hives"
                  }
                ]
              }
            ],
            "severity": "Mild to moderate"
          }
        ],
        "substance": [
          {
            "coding": [
              {
                "system": "http://www.nlm.nih.gov/research/umls/rxnorm",
                "code": "1191",
                "display": "Aspirin"
              }
            ]
          }
        ]
      }
    },
    {
      "resource": {
        "resourceType": "Encounter",
        "id": "Encounter/6",
        "patient": {
          "reference": "Patient/1"
        },
        "identifier": [
          {
            "value": "2a620155-9d11-439e-92b3-5d9815ff4de8"
          }
        ],
        "type": {
          "coding": [
            {
              "system": "http://www.ama-assn.org/go/cpt",
              "code": "99222",
              "display": "InPatient Admission"
            }
          ]
        },
        "period": {
          "start": "2012-08-06",
          "end": "2012-08-06"
        },
        "participant": [
          {
            "type": {
              "coding": [
                {
                  "system": "http://hl7.org/fhir/v3/ParticipationType",
                  "code": "ATND",
                  "display": "attender"
                }
              ]
            },
            "individual": {
              "reference": "Practitioner/7"
            }
          }
        ],
        "location": [
          {
            "location": {
              "reference": "Location/8"
            }
          }
        ],
        "reason": [
          {
            "coding": [
              {
                "system": "http://snomed.info/sct",
                "code": "233604007",
                "display": "Pneumonia"
              }
            ]
          }
        ]
      }
    },
    {
      "resource": {
        "resourceType": "Practitioner",
        "id": "Practitioner/7",
        "identifier": [
          {
            "value": "2a620155-9d11-439e-92a3-5d9815ff4de8"
          }
        ],
        "practitionerRole": [
          {
            "specialty": {
              "coding": [
                {
                  "system": "http://snomed.info/sct",
                  "code": "59058001",
                  "display": "General Physician"
                }
              ]
            }
          }
        ]
      }
    },
    {
      "resource": {
        "resourceType": "Location",
        "id": "Location/8",
        "type": {
          "coding": [
            {
              "system": "urn:oid:2.16.840.1.113883.6.259",
              "code": "1160-1",
              "display": "Urgent Care Center"
            }
          ]
        },
        "address": {
          "line": [
            "1002 Healthcare Dr"
          ],
          "city": "Portland",
          "state": "OR",
          "postalCode": "97266",
          "country": "US"
        },
        "name": "Community Health and Hospitals"
      }
    },
    {
      "resource": {
        "resourceType": "Immunization",
        "id": "Immunization/9",
        "patient": {
          "reference": "Patient/1"
        },
        "date": "2012-05-10",
        "route": {
          "coding": [
            {
              "system": "urn:oid:2.16.840.1.113883.3.26.1.1",
              "code": "C28161",
              "display": "Intramuscular injection"
            }
          ]
        },
        "doseQuantity": {
          "value": 50,
          "units": "mcg"
        },
        "vaccineType": {
          "coding": [
            {
              "system": "urn:oid:2.16.840.1.113883.6.59",
              "code": "88",
              "display": "Influenza virus vaccine"
            }
          ]
        },
        "manufacturer": {
          "reference": "Organization/10"
        }
      }
    },
    {
      "resource": {
        "resourceType": "Organization",
        "id": "Organization/10",
        "name": "Health LS - Immuno Inc."
      }
    },
    {
      "resource": {
        "resourceType": "Immunization",
        "id": "Immunization/11",
        "patient": {
          "reference": "Patient/1"
        },
        "date": "2012-04-01",
        "route": {
          "coding": [
            {
              "system": "urn:oid:2.16.840.1.113883.3.26.1.1",
              "code": "C28161",
              "display": "Intramuscular injection"
            }
          ]
        },
        "doseQuantity": {
          "value": 50,
          "units": "mcg"
        },
        "vaccineType": {
          "coding": [
            {
              "system": "urn:oid:2.16.840.1.113883.6.59",
              "code": "103",
              "display": "Tetanus and diphtheria toxoids - preservative free"
            }
          ]
        },
        "manufacturer": {
          "reference": "Organization/12"
        }
      }
    },
    {
      "resource": {
        "resourceType": "Organization",
        "id": "Organization/12",
        "name": "Health LS - Immuno Inc."
      }
    },
    {
      "resource": {
        "resourceType": "MedicationPrescription",
        "id": "MedicationPrescription/13",
        "patient": {
          "reference": "Patient/1"
        },
        "dosageInstruction": [
          {
            "scheduledTiming": {
              "repeat": {
                "period": "12",
                "periodUnits": "h"
              }
            }
          }
        ],
        "reasonReference": {
          "reference": "Condition/19"
        },
        "status": "completed",
        "dispense": {
          "validityPeriod": {
            "start": "2012-08-06",
            "end": "2012-08-13"
          },
          "numberOfRepeatsAllowed": 1,
          "quantity": {
            "value": 75
          }
        },
        "medication": {
          "reference": "Medication/20"
        },
        "prescriber": {
          "reference": "Practitioner/22"
        }
      }
    },
    {
      "resource": {
        "resourceType": "MedicationAdministration",
        "id": "MedicationAdministration/14",
        "patient": {
          "reference": "Patient/1"
        },
        "prescription": {
          "reference": "MedicationPrescription/13"
        },
        "dosage": [
          {
            "route": {
              "coding": [
                {
                  "system": "urn:oid:2.16.840.1.113883.3.26.1.1",
                  "code": "C38216",
                  "display": "RESPIRATORY (INHALATION)"
                }
              ]
            },
            "quantity": {
              "value": 0.09,
              "units": "mg/actuat"
            },
            "rate": {
              "numerator": {
                "value": 90,
                "units": "ml/min"
              }
            },
            "method": {
              "coding": [
                {
                  "system": "urn:oid:2.16.840.1.113883.3.26.1.1",
                  "code": "C42944",
                  "display": "INHALANT"
                }
              ]
            }
          }
        ],
        "status": "completed",
        "effectiveTimePeriod": {
          "start": "2012-08-06",
          "end": "2012-08-13"
        },
        "medication": {
          "reference": "Medication/15"
        },
        "practitioner": {
          "reference": "Practitioner/17"
        }
      }
    },
    {
      "resource": {
        "resourceType": "Medication",
        "id": "Medication/15",
        "name": "Albuterol 0.09 MG/ACTUAT inhalant solution",
        "code": {
          "coding": [
            {
              "system": "http://www.nlm.nih.gov/research/umls/rxnorm",
              "code": "573621",
              "display": "Albuterol 0.09 MG/ACTUAT inhalant solution"
            }
          ]
        },
        "manufacturer": {
          "reference": "Organization/16"
        }
      }
    },
    {
      "resource": {
        "resourceType": "Organization",
        "id": "Organization/16",
        "name": "Medication Factory Inc."
      }
    },
    {
      "resource": {
        "resourceType": "Practitioner",
        "id": "Practitioner/17",
        "practitionerRole": [
          {
            "managingOrganization": {
              "reference": "Organization/18"
            }
          }
        ]
      }
    },
    {
      "resource": {
        "resourceType": "Organization",
        "id": "Organization/18",
        "name": "Community Health and Hospitals"
      }
    },
    {
      "resource": {
        "resourceType": "Condition",
        "id": "Condition/19",
        "patient": {
          "reference": "Patient/1"
        },
        "category": {
          "coding": [
            {
              "system": "http://snomed.info/sct",
              "code": "404684003",
              "display": "Finding"
            }
          ]
        },
        "clinicalStatus": "completed",
        "onsetPeriod": {
          "end": "2012-08-13"
        },
        "code": {
          "coding": [
            {
              "system": "http://snomed.info/sct",
              "code": "233604007",
              "display": "Pneumonia"
            }
          ]
        }
      }
    },
    {
      "resource": {
        "resourceType": "Medication",
        "id": "Medication/20",
        "name": "Albuterol 0.09 MG/ACTUAT inhalant solution",
        "code": {
          "coding": [
            {
              "system": "http://www.nlm.nih.gov/research/umls/rxnorm",
              "code": "573621",
              "display": "Albuterol 0.09 MG/ACTUAT inhalant solution"
            }
          ]
        },
        "manufacturer": {
          "reference": "Organization/21"
        }
      }
    },
    {
      "resource": {
        "resourceType": "Organization",
        "id": "Organization/21",
        "name": "Medication Factory Inc."
      }
    },
    {
      "resource": {
        "resourceType": "Practitioner",
        "id": "Practitioner/22",
        "identifier": [
          {
            "value": "2a620155-9d11-439e-92b3-5d9815fe4de8"
          }
        ],
        "name": [
          {
            "given": [
              "Henry"
            ],
            "family": [
              "Seven"
            ]
          }
        ]
      }
    },
    {
      "resource": {
        "resourceType": "CarePlan",
        "id": "CarePlan/23",
        "patient": {
          "reference": "Patient/1"
        },
        "activity": [
          {
            "reference": {
              "reference": "ProcedureRequest/24"
            }
          },
          {
            "reference": {
              "reference": "ProcedureRequest/25"
            }
          },
          {
            "reference": {
              "reference": "ProcedureRequest/26"
            }
          }
        ]
      }
    },
    {
      "resource": {
        "resourceType": "ProcedureRequest",
        "id": "ProcedureRequest/24",
        "subject": {
          "reference": "Patient/1"
        },
        "type": {
          "coding": [
            {
              "system": "http://www.ama-assn.org/go/cpt",
              "code": "99241",
              "display": "Office consultation - 15 minutes"
            }
          ]
        },
        "timingDateTime": "2012-08-20"
      }
    },
    {
      "resource": {
        "resourceType": "ProcedureRequest",
        "id": "ProcedureRequest/25",
        "subject": {
          "reference": "Patient/1"
        },
        "type": {
          "coding": [
            {
              "system": "http://snomed.info/sct",
              "code": "168731009",
              "display": "Chest X-Ray"
            }
          ]
        },
        "status": "new",
        "timingDateTime": "2012-08-26"
      }
    },
    {
      "resource": {
        "resourceType": "ProcedureRequest",
        "id": "ProcedureRequest/26",
        "subject": {
          "reference": "Patient/1"
        },
        "type": {
          "coding": [
            {
              "system": "http://loinc.org",
              "code": "624-7",
              "display": "Sputum Culture"
            }
          ]
        },
        "status": "new",
        "timingDateTime": "2012-08-20"
      }
    },
    {
      "resource": {
        "resourceType": "ClinicalImpression",
        "id": "ClinicalImpression/27",
        "patient": {
          "reference": "Patient/1"
        },
        "problem": [
          {
            "reference": "Condition/28"
          },
          {
            "reference": "Condition/30"
          }
        ]
      }
    },
    {
      "resource": {
        "resourceType": "Condition",
        "id": "Condition/28",
        "patient": {
          "reference": "Patient/1"
        },
        "identifier": [
          {
            "value": "ec8a6ff8-ed4b-4f7e-82c3-e98e58b45de7"
          }
        ],
        "code": {
          "coding": [
            {
              "system": "urn:oid:2.16.840.1.113883.5.6",
              "code": "CONC",
              "display": "Concern"
            }
          ]
        },
        "clinicalStatus": "completed",
        "stage": {
          "assessment": [
            {
              "reference": "Observation/29"
            }
          ]
        },
        "onsetAge": {
          "value": 65,
          "units": "a",
          "system": "http://snomed.info/sct",
          "code": "445518008"
        },
        "onsetDateTime": "2012-08-06"
      }
    },
    {
      "resource": {
        "resourceType": "Observation",
        "id": "Observation/29",
        "subject": {
          "reference": "Patient/1"
        },
        "identifier": [
          {
            "value": "ab1791b0-5c71-11db-b0de-0800200c9a66"
          }
        ],
        "code": {
          "coding": [
            {
              "system": "http://snomed.info/sct",
              "code": "409586006",
              "display": "Complaint"
            }
          ]
        },
        "status": "completed",
        "appliesPeriod": {
          "start": "2012-08-06"
        },
        "valueCodeableConcept": {
          "coding": [
            {
              "system": "http://snomed.info/sct",
              "code": "233604007",
              "display": "Pneumonia"
            }
          ]
        }
      }
    },
    {
      "resource": {
        "resourceType": "Condition",
        "id": "Condition/30",
        "patient": {
          "reference": "Patient/1"
        },
        "identifier": [
          {
            "value": "ec8a6ff8-ed4b-4f7e-82c3-e98e58b45de7"
          }
        ],
        "code": {
          "coding": [
            {
              "system": "urn:oid:2.16.840.1.113883.5.6",
              "code": "CONC",
              "display": "Concern"
            }
          ]
        },
        "clinicalStatus": "completed",
        "onsetPeriod": {
          "start": "2007-01-03",
          "end": "2012-08-06"
        },
        "stage": {
          "assessment": [
            {
              "reference": "Observation/31"
            }
          ]
        },
        "onsetAge": {
          "value": 65,
          "units": "a",
          "system": "http://snomed.info/sct",
          "code": "445518008"
        }
      }
    },
    {
      "resource": {
        "resourceType": "Observation",
        "id": "Observation/31",
        "subject": {
          "reference": "Patient/1"
        },
        "identifier": [
          {
            "value": "ab1791b0-5c71-11db-b0de-0800200c9a66"
          }
        ],
        "code": {
          "coding": [
            {
              "system": "http://snomed.info/sct",
              "code": "409586006",
              "display": "Complaint"
            }
          ]
        },
        "status": "completed",
        "appliesPeriod": {
          "start": "2007-01-03"
        },
        "valueCodeableConcept": {
          "coding": [
            {
              "system": "http://snomed.info/sct",
              "code": "195967001",
              "display": "Asthma"
            }
          ]
        }
      }
    },
    {
      "resource": {
        "resourceType": "Procedure",
        "id": "Procedure/32",
        "patient": {
          "reference": "Patient/1"
        },
        "identifier": [
          {
            "value": "2.16.840.1.113883.19"
          }
        ],
        "type": {
          "system": "http://snomed.info/sct",
          "code": "168731009",
          "display": "Chest X-Ray"
        },
        "status": "completed",
        "performedDateTime": "2012-08-07",
        "bodySite": [
          {
            "siteCodeableConcept": {
              "coding": [
                {
                  "system": "http://snomed.info/sct",
                  "code": "82094008",
                  "display": "Lower Respiratory Tract Structure"
                }
              ]
            }
          }
        ],
        "performer": [
          {
            "person": {
              "reference": "Practitioner/33"
            }
          }
        ],
        "used": [
          {
            "reference": "Device/35"
          }
        ],
        "location": {
          "reference": "Location/36"
        }
      }
    },
    {
      "resource": {
        "resourceType": "Practitioner",
        "id": "Practitioner/33",
        "identifier": [
          {
            "value": "2.16.840.1.113883.19.5"
          }
        ],
        "address": [
          {
            "line": [
              "1002 Healthcare Dr"
            ],
            "city": "Portland",
            "state": "OR",
            "postalCode": "97266",
            "country": "US"
          }
        ],
        "telecom": [
          {
            "use": "work",
            "value": "(555)555-555-1234"
          }
        ],
        "practitionerRole": [
          {
            "managingOrganization": {
              "reference": "Organization/34"
            }
          }
        ]
      }
    },
    {
      "resource": {
        "resourceType": "Organization",
        "id": "Organization/34",
        "name": "Community Health and Hospitals"
      }
    },
    {
      "resource": {
        "resourceType": "Device",
        "id": "Device/35",
        "patient": {
          "reference": "Patient/1"
        }
      }
    },
    {
      "resource": {
        "resourceType": "Location",
        "id": "Location/36",
        "type": {
          "coding": [
            {
              "system": "urn:oid:2.16.840.1.113883.6.259",
              "code": "1160-1",
              "display": "Urgent Care Center"
            }
          ]
        },
        "address": {
          "line": [
            "1002 Healthcare Dr"
          ],
          "city": "Portland",
          "state": "OR",
          "postalCode": "97266",
          "country": "US"
        },
        "name": "Community Health and Hospitals"
      }
    },
    {
      "resource": {
        "resourceType": "Observation",
        "id": "Observation/37",
        "subject": {
          "reference": "Patient/1"
        },
        "identifier": [
          {
            "value": "107c2dc0-67a5-11db-bd13-0800200c9a66"
          }
        ],
        "code": {
          "coding": [
            {
              "system": "http://loinc.org",
              "code": "30313-1",
              "display": "HGB"
            }
          ]
        },
        "status": "completed",
        "appliesDateTime": "2012-08-10",
        "valueQuantity": {
          "value": "10.2",
          "units": "g/dl"
        },
        "interpretation": {
          "coding": [
            {
              "system": "urn:oid:2.16.840.1.113883.5.83",
              "code": "N"
            }
          ]
        },
        "bodySiteCodeableConcept": {
          "coding": [
            {}
          ]
        },
        "referenceRange": {
          "text": "M 13-18 g/dl; F 12-16 g/dl"
        }
      }
    },
    {
      "resource": {
        "resourceType": "Observation",
        "id": "Observation/38",
        "subject": {
          "reference": "Patient/1"
        },
        "identifier": [
          {
            "value": "107c2dc0-67a5-11db-bd13-0800200c9a66"
          }
        ],
        "code": {
          "coding": [
            {
              "system": "http://loinc.org",
              "code": "33765-9",
              "display": "WBC"
            }
          ]
        },
        "status": "completed",
        "appliesDateTime": "2012-08-10",
        "valueQuantity": {
          "value": "12.3",
          "units": "10+3/ul"
        },
        "interpretation": {
          "coding": [
            {
              "system": "urn:oid:2.16.840.1.113883.5.83",
              "code": "N"
            }
          ]
        },
        "bodySiteCodeableConcept": {
          "coding": [
            {}
          ]
        },
        "referenceRange": {
          "low": {
            "value": "4.3",
            "units": "10+3/ul"
          },
          "high": {
            "value": "10.8",
            "units": "10+3/ul"
          }
        }
      }
    },
    {
      "resource": {
        "resourceType": "Observation",
        "id": "Observation/39",
        "subject": {
          "reference": "Patient/1"
        },
        "identifier": [
          {
            "value": "107c2dc0-67a5-11db-bd13-0800200c9a66"
          }
        ],
        "code": {
          "coding": [
            {
              "system": "http://loinc.org",
              "code": "26515-7",
              "display": "PLT"
            }
          ]
        },
        "status": "completed",
        "appliesDateTime": "2012-08-10",
        "valueQuantity": {
          "value": "123",
          "units": "10+3/ul"
        },
        "interpretation": {
          "coding": [
            {
              "system": "urn:oid:2.16.840.1.113883.5.83",
              "code": "L"
            }
          ]
        },
        "bodySiteCodeableConcept": {
          "coding": [
            {}
          ]
        },
        "referenceRange": {
          "low": {
            "value": "150",
            "units": "10+3/ul"
          },
          "high": {
            "value": "350",
            "units": "10+3/ul"
          }
        }
      }
    },
    {
      "resource": {
        "resourceType": "Observation",
        "id": "Observation/40",
        "subject": {
          "reference": "Patient/1"
        },
        "identifier": [
          {
            "value": "9b56c25d-9104-45ee-9fa4-e0f3afaa01c1"
          }
        ],
        "code": {
          "coding": [
            {
              "system": "http://snomed.info/sct",
              "code": "230056004",
              "display": "Cigarette smoking"
            }
          ]
        },
        "status": "completed",
        "appliesPeriod": {
          "start": "2005-05-01",
          "end": "2011-02-27"
        },
        "valueString": "1 pack per day"
      }
    },
    {
      "resource": {
        "resourceType": "Observation",
        "id": "Observation/41",
        "subject": {
          "reference": "Patient/1"
        },
        "identifier": [
          {
            "value": "45efb604-7049-4a2e-ad33-d38556c9636c"
          }
        ],
        "code": {
          "coding": [
            {
              "system": "http://snomed.info/sct",
              "code": "230056004",
              "display": "Cigarette smoking"
            }
          ]
        },
        "status": "completed",
        "appliesPeriod": {
          "start": "2011-02-27"
        },
        "valueCodeableConcept": {
          "coding": [
            {
              "system": "http://snomed.info/sct",
              "code": "449868002",
              "display": "Current Everyday Smoker"
            }
          ]
        }
      }
    },
    {
      "resource": {
        "resourceType": "Observation",
        "id": "Observation/42",
        "subject": {
          "reference": "Patient/1"
        },
        "identifier": [
          {
            "value": "c6f88321-67ad-11db-bd13-0800200c9a66"
          }
        ],
        "code": {
          "coding": [
            {
              "system": "http://loinc.org",
              "code": "8302-2",
              "display": "Height"
            }
          ]
        },
        "status": "completed",
        "appliesDateTime": "2008-11-01",
        "valueQuantity": {
          "value": "69",
          "units": "in"
        },
        "interpretation": {
          "coding": [
            {
              "system": "urn:oid:2.16.840.1.113883.5.83",
              "code": "N"
            }
          ]
        }
      }
    },
    {
      "resource": {
        "resourceType": "Observation",
        "id": "Observation/43",
        "subject": {
          "reference": "Patient/1"
        },
        "identifier": [
          {
            "value": "c6f88321-67ad-11db-bd13-0800200c9a66"
          }
        ],
        "code": {
          "coding": [
            {
              "system": "http://loinc.org",
              "code": "3141-9",
              "display": "Patient Body Weight - Measured"
            }
          ]
        },
        "status": "completed",
        "appliesDateTime": "2011-11-01",
        "valueQuantity": {
          "value": "189",
          "units": "lbs"
        },
        "interpretation": {
          "coding": [
            {
              "system": "urn:oid:2.16.840.1.113883.5.83",
              "code": "N"
            }
          ]
        }
      }
    },
    {
      "resource": {
        "resourceType": "Observation",
        "id": "Observation/44",
        "subject": {
          "reference": "Patient/1"
        },
        "identifier": [
          {
            "value": "c6f88321-67ad-11db-bd13-0800200c9a66"
          }
        ],
        "code": {
          "coding": [
            {
              "system": "http://loinc.org",
              "code": "8480-6",
              "display": "Intravascular Systolic"
            }
          ]
        },
        "status": "completed",
        "appliesDateTime": "2011-11-01",
        "valueQuantity": {
          "value": "132",
          "units": "mm[Hg]"
        },
        "interpretation": {
          "coding": [
            {
              "system": "urn:oid:2.16.840.1.113883.5.83",
              "code": "N"
            }
          ]
        }
      }
    },
    {
      "resource": {
        "resourceType": "Observation",
        "id": "Observation/45",
        "subject": {
          "reference": "Patient/1"
        },
        "identifier": [
          {
            "value": "c6f88321-67ad-11db-bd13-0800200c9a66"
          }
        ],
        "code": {
          "coding": [
            {
              "system": "http://loinc.org",
              "code": "8302-2",
              "display": "Height"
            }
          ]
        },
        "status": "completed",
        "appliesDateTime": "2012-08-06",
        "valueQuantity": {
          "value": "69",
          "units": "in"
        },
        "interpretation": {
          "coding": [
            {
              "system": "urn:oid:2.16.840.1.113883.5.83",
              "code": "N"
            }
          ]
        }
      }
    },
    {
      "resource": {
        "resourceType": "Observation",
        "id": "Observation/46",
        "subject": {
          "reference": "Patient/1"
        },
        "identifier": [
          {
            "value": "c6f88321-67ad-11db-bd13-0800200c9a66"
          }
        ],
        "code": {
          "coding": [
            {
              "system": "http://loinc.org",
              "code": "3141-9",
              "display": "Patient Body Weight - Measured"
            }
          ]
        },
        "status": "completed",
        "appliesDateTime": "2012-08-06",
        "valueQuantity": {
          "value": "194",
          "units": "lbs"
        },
        "interpretation": {
          "coding": [
            {
              "system": "urn:oid:2.16.840.1.113883.5.83",
              "code": "N"
            }
          ]
        }
      }
    },
    {
      "resource": {
        "resourceType": "Observation",
        "id": "Observation/47",
        "subject": {
          "reference": "Patient/1"
        },
        "identifier": [
          {
            "value": "c6f88321-67ad-11db-bd13-0800200c9a66"
          }
        ],
        "code": {
          "coding": [
            {
              "system": "http://loinc.org",
              "code": "8480-6",
              "display": "Intravascular Systolic"
            }
          ]
        },
        "status": "completed",
        "appliesDateTime": "2012-08-06",
        "valueQuantity": {
          "value": "145",
          "units": "mm[Hg]"
        },
        "interpretation": {
          "coding": [
            {
              "system": "urn:oid:2.16.840.1.113883.5.83",
              "code": "N"
            }
          ]
        }
      }
    }
  ],
  "id": "urn:hl7ii:1.1.1.1.1.1.1.1.1:Test CCDA"
}